// Start Time: Unknown
// Update Rate: 100.0Hz
// Filter Profile: human (46.1)
// Option Flags: AHS Disabled ICC Disabled 
// Firmware Version: 4.0.2
PacketCounter	SampleTimeFine	Acc_X	Acc_Y	Acc_Z	FreeAcc_X	FreeAcc_Y	FreeAcc_Z	Gyr_X	Gyr_Y	Gyr_Z	Mag_X	Mag_Y	Mag_Z	VelInc_X	VelInc_Y	VelInc_Z	OriInc_q0	OriInc_q1	OriInc_q2	OriInc_q3	Mat[1][1]	Mat[2][1]	Mat[3][1]	Mat[1][2]	Mat[2][2]	Mat[3][2]	Mat[1][3]	Mat[2][3]	Mat[3][3]
09203	0	8.225546	0.091094	5.899778	-0.000000	-0.000000	0.310320	-0.003527	0.005281	0.000665	-0.289795	0.073486	-0.801758	0.082257	0.000912	0.058996	1.000000	-0.000018	0.000026	0.000003	0.571678	-0.113608	0.812575	0.182571	0.983151	0.009012	-0.799908	0.143201	0.582787
09204	0	8.244268	0.104155	5.908328	-0.000000	-0.000000	0.330643	0.004049	0.003461	-0.002071	-0.291992	0.071045	-0.801758	0.082444	0.001039	0.059082	1.000000	0.000020	0.000017	-0.000010	0.571508	-0.112937	0.812787	0.179806	0.983649	0.010248	-0.800655	0.140287	0.582470
09205	0	8.209813	0.109369	5.907486	-0.015186	0.014630	0.302199	0.001628	0.006237	-0.003447	-0.294434	0.077881	-0.797363	0.082100	0.001092	0.059072	1.000000	0.000008	0.000031	-0.000017	0.571617	-0.113305	0.812660	0.181166	0.983405	0.009681	-0.800271	0.141692	0.582658
09206	0	8.175320	0.114300	5.906696	-0.032850	0.023064	0.273757	0.001319	0.004815	0.002831	-0.289795	0.071289	-0.799561	0.081755	0.001144	0.059065	1.000000	0.000007	0.000024	0.000014	0.571660	-0.113284	0.812632	0.181139	0.983410	0.009666	-0.800246	0.141674	0.582697
09207	0	8.194189	0.127303	5.915041	-0.026253	0.034910	0.294080	0.000592	-0.001074	-0.001805	-0.290039	0.075684	-0.808838	0.081942	0.001272	0.059151	1.000000	0.000003	-0.000005	-0.000009	0.571644	-0.113298	0.812642	0.181149	0.983408	0.009679	-0.800255	0.141676	0.582683
09208	0	8.228361	0.122640	5.916273	-0.008589	0.026476	0.322522	0.002940	0.000880	0.000555	-0.294434	0.077881	-0.799805	0.082284	0.001226	0.059162	1.000000	0.000015	0.000004	0.000003	0.571652	-0.113294	0.812637	0.181122	0.983413	0.009691	-0.800255	0.141647	0.582690
09209	0	8.194084	0.127473	5.915182	-0.026243	0.034894	0.294080	-0.001029	0.002860	0.000471	-0.289795	0.071289	-0.799561	0.081942	0.001275	0.059151	1.000000	-0.000005	0.000014	0.000002	0.571676	-0.113294	0.812619	0.181128	0.983412	0.009683	-0.800237	0.141653	0.582714
09210	0	8.209035	0.109605	5.908562	-0.015225	0.014677	0.302199	0.001396	0.005170	0.001261	-0.292236	0.077881	-0.802002	0.082092	0.001096	0.059084	1.000000	0.000007	0.000026	0.000006	0.571720	-0.113289	0.812589	0.181109	0.983415	0.009681	-0.800210	0.141633	0.582756
09211	0	8.240551	0.094375	5.932243	-0.018282	-0.000755	0.341463	0.001036	0.007312	-0.001643	-0.291992	0.073486	-0.801758	0.082408	0.000943	0.059319	1.000000	0.000005	0.000037	-0.000008	0.571778	-0.113319	0.812545	0.181111	0.983415	0.009703	-0.800168	0.141612	0.582818
09212	0	8.223582	0.091990	5.902502	-0.004180	-0.005577	0.310318	0.000955	0.001870	0.000513	-0.298828	0.071045	-0.806396	0.082236	0.000920	0.059024	1.000000	0.000005	0.000009	0.000003	0.571794	-0.113316	0.812534	0.181100	0.983417	0.009705	-0.800159	0.141601	0.582833
09213	0	8.276357	0.100248	5.912460	0.020171	-0.002259	0.359083	0.001477	0.010612	-0.000895	-0.294434	0.075439	-0.797363	0.082767	0.001002	0.059120	1.000000	0.000007	0.000053	-0.000004	0.571880	-0.113343	0.812469	0.181093	0.983418	0.009723	-0.800099	0.141572	0.582923
09214	0	8.258975	0.097734	5.883305	0.034272	-0.007081	0.327938	0.000293	0.012761	0.002715	-0.290039	0.080078	-0.799805	0.082593	0.000978	0.058828	1.000000	0.000001	0.000064	0.000014	0.571987	-0.113334	0.812395	0.181075	0.983421	0.009702	-0.800026	0.141555	0.583026
09215	0	8.221738	0.092015	5.905070	-0.004143	-0.005633	0.310318	0.001918	0.013912	-0.000147	-0.289795	0.071289	-0.801758	0.082221	0.000920	0.059045	1.000000	0.000010	0.000070	-0.000001	0.572098	-0.113357	0.812314	0.181061	0.983424	0.009717	-0.799950	0.141519	0.583139
09216	0	8.218516	0.081692	5.928284	-0.024891	-0.012594	0.321140	0.002436	0.017568	-0.000969	-0.287598	0.073486	-0.808838	0.082190	0.000816	0.059276	1.000000	0.000012	0.000088	-0.000005	0.572237	-0.113391	0.812211	0.181047	0.983426	0.009739	-0.799854	0.141475	0.583282
09217	0	8.203198	0.089836	5.877528	0.009983	-0.010461	0.279173	0.003309	0.013997	0.001700	-0.292236	0.077881	-0.804443	0.082036	0.000898	0.058770	1.000000	0.000017	0.000070	0.000008	0.572354	-0.113395	0.812128	0.181011	0.983433	0.009745	-0.799779	0.141426	0.583397
09218	0	8.219080	0.092441	5.908762	-0.004119	-0.005639	0.310318	0.005293	0.013007	0.001743	-0.292236	0.077881	-0.799805	0.082195	0.000924	0.059082	1.000000	0.000026	0.000065	0.000009	0.572461	-0.113396	0.812053	0.180958	0.983442	0.009762	-0.799714	0.141360	0.583502
09219	0	8.199454	0.079728	5.901457	-0.010748	-0.017412	0.289995	0.008307	0.009156	0.001316	-0.291992	0.073242	-0.799561	0.081997	0.000795	0.059011	1.000000	0.000042	0.000046	0.000007	0.572538	-0.113395	0.811999	0.180885	0.983456	0.009798	-0.799676	0.141268	0.583577
09220	0	8.198994	0.080005	5.902093	-0.010748	-0.017412	0.289995	0.005804	0.006491	0.002094	-0.294434	0.075439	-0.799561	0.081992	0.000799	0.059018	1.000000	0.000029	0.000032	0.000010	0.572594	-0.113384	0.811961	0.180826	0.983466	0.009815	-0.799649	0.141204	0.583629
09221	0	8.200128	0.100510	5.939622	-0.035825	0.007678	0.313021	0.006319	0.005061	0.001860	-0.289795	0.073486	-0.804199	0.082003	0.001004	0.059394	1.000000	0.000032	0.000025	0.000009	0.572641	-0.113369	0.811930	0.180765	0.983477	0.009831	-0.799629	0.141139	0.583672
09222	0	8.204357	0.121663	5.896299	0.005670	0.021601	0.291377	0.005289	0.007921	0.002329	-0.292236	0.075684	-0.799561	0.082046	0.001216	0.058960	1.000000	0.000026	0.000040	0.000012	0.572708	-0.113357	0.811884	0.180709	0.983487	0.009843	-0.799593	0.141078	0.583736
09223	0	8.236535	0.096689	5.861248	0.048535	-0.011860	0.296793	0.004853	0.009707	0.000993	-0.287598	0.073486	-0.806396	0.082368	0.000966	0.058609	1.000000	0.000024	0.000049	0.000005	0.572794	-0.113360	0.811823	0.180665	0.983495	0.009861	-0.799542	0.141020	0.583821
09224	0	8.286856	0.094497	5.893382	0.052099	-0.015472	0.356379	0.003819	0.007481	0.002050	-0.294434	0.073242	-0.804199	0.082871	0.000945	0.058931	1.000000	0.000019	0.000037	0.000010	0.572858	-0.113350	0.811779	0.180623	0.983503	0.009866	-0.799506	0.140974	0.583881
09225	0	8.271058	0.112387	5.901147	0.041020	0.004792	0.348261	0.006684	0.013092	0.003588	-0.294678	0.080078	-0.804443	0.082714	0.001123	0.059006	1.000000	0.000033	0.000065	0.000018	0.572964	-0.113330	0.811707	0.180548	0.983517	0.009873	-0.799446	0.140896	0.583981
09226	0	8.302874	0.087421	5.866638	0.083804	-0.028681	0.353676	0.008671	0.017188	0.003042	-0.289551	0.068848	-0.799316	0.083034	0.000873	0.058659	1.000000	0.000043	0.000086	0.000015	0.573107	-0.113324	0.811607	0.180462	0.983532	0.009899	-0.799363	0.140791	0.584120
09227	0	8.299573	0.077131	5.889948	0.062805	-0.035555	0.364500	0.005732	0.016309	0.002485	-0.294678	0.080078	-0.806641	0.083001	0.000771	0.058893	1.000000	0.000029	0.000082	0.000012	0.573222	-0.113316	0.811527	0.180402	0.983543	0.009908	-0.799295	0.140721	0.584231
09228	0	8.277173	0.054194	5.905211	0.035410	-0.054300	0.354999	0.012879	0.021360	-0.002168	-0.292236	0.075684	-0.797363	0.082778	0.000537	0.059043	1.000000	0.000064	0.000107	-0.000011	0.573389	-0.113367	0.811402	0.180311	0.983559	0.010001	-0.799195	0.140570	0.584403
09229	0	8.278183	0.065205	5.885128	0.055761	-0.047100	0.344181	0.008080	0.023351	0.004254	-0.290039	0.075684	-0.806641	0.082789	0.000651	0.058842	1.000000	0.000040	0.000117	0.000021	0.573551	-0.113340	0.811291	0.180224	0.983575	0.009998	-0.799099	0.140480	0.584557
09230	0	8.223705	0.057288	5.877470	0.031452	-0.050451	0.295415	0.010142	0.022716	0.002728	-0.291992	0.073486	-0.808838	0.082244	0.000571	0.058765	1.000000	0.000051	0.000114	0.000014	0.573737	-0.113345	0.811159	0.180127	0.983592	0.010035	-0.798987	0.140354	0.584740
09231	0	8.224892	0.068201	5.857150	0.051696	-0.043131	0.284598	0.010732	0.016554	0.001515	-0.287598	0.075684	-0.794922	0.082254	0.000679	0.058565	1.000000	0.000054	0.000083	0.000008	0.573832	-0.113324	0.811095	0.180032	0.983609	0.010059	-0.798940	0.140251	0.584828
09232	0	8.167573	0.059963	5.929774	-0.039230	-0.035364	0.280492	0.011246	0.015124	0.001281	-0.289795	0.073486	-0.799561	0.081680	0.000597	0.059292	1.000000	0.000056	0.000076	0.000006	0.573955	-0.113333	0.811006	0.179935	0.983627	0.010114	-0.798874	0.140123	0.584950
09233	0	8.188171	0.083833	5.917047	-0.012269	-0.016172	0.289995	0.008224	0.008803	0.002884	-0.285156	0.071289	-0.797119	0.081884	0.000837	0.059167	1.000000	0.000041	0.000044	0.000014	0.573996	-0.113280	0.810985	0.179850	0.983642	0.010103	-0.798863	0.140056	0.584980
09234	0	8.171029	0.081590	5.887615	0.001837	-0.020997	0.258853	0.009693	0.009243	0.003163	-0.291992	0.073486	-0.806396	0.081713	0.000814	0.058872	1.000000	0.000048	0.000046	0.000016	0.574075	-0.113262	0.810931	0.179755	0.983659	0.010134	-0.798828	0.139951	0.585054
09235	0	8.150628	0.078854	5.939040	-0.051095	-0.014238	0.272368	0.008819	0.007727	0.001081	-0.287842	0.077881	-0.790527	0.081509	0.000786	0.059387	1.000000	0.000044	0.000039	0.000005	0.574106	-0.113222	0.810915	0.179673	0.983674	0.010140	-0.798824	0.139878	0.585076
09236	0	8.167978	0.071701	5.910510	-0.019327	-0.027495	0.269673	0.004763	-0.000819	0.003743	-0.294434	0.073486	-0.806396	0.081680	0.000717	0.059105	1.000000	0.000024	-0.000004	0.000019	0.574106	-0.113184	0.810920	0.179614	0.983685	0.010137	-0.798837	0.139832	0.585069
09237	0	8.204513	0.077336	5.889902	0.018782	-0.028401	0.287303	0.009090	0.000147	0.006149	-0.291992	0.073486	-0.806396	0.082045	0.000773	0.058899	1.000000	0.000045	0.000001	0.000031	0.574094	-0.113080	0.810943	0.179507	0.983705	0.010091	-0.798870	0.139777	0.585038
09238	0	8.221113	0.080157	5.920073	0.004672	-0.023572	0.318444	0.011313	0.000219	0.001486	-0.291992	0.071289	-0.806396	0.082211	0.000799	0.059201	1.000000	0.000057	0.000001	0.000007	0.574099	-0.113065	0.810942	0.179408	0.983722	0.010145	-0.798889	0.139666	0.585039
09239	0	8.223285	0.091063	5.898383	0.025015	-0.016010	0.307627	0.009254	0.005942	0.002416	-0.287842	0.077881	-0.802002	0.082235	0.000909	0.058981	1.000000	0.000046	0.000030	0.000012	0.574118	-0.113001	0.810937	0.179318	0.983739	0.010128	-0.798895	0.139601	0.585045
09240	0	8.220593	0.080888	5.920785	0.004263	-0.022969	0.318445	0.009174	0.005588	0.003986	-0.294189	0.071045	-0.801758	0.082208	0.000808	0.059206	1.000000	0.000046	0.000028	0.000020	0.574170	-0.112969	0.810905	0.179222	0.983756	0.010150	-0.798880	0.139504	0.585090
09241	0	8.235283	0.063206	5.914627	0.014915	-0.042546	0.326576	0.008584	0.011751	0.005194	-0.287598	0.071289	-0.799561	0.082356	0.000632	0.059141	1.000000	0.000043	0.000059	0.000026	0.574243	-0.112884	0.810865	0.179124	0.983775	0.010102	-0.798848	0.139444	0.585146
09242	0	8.221945	0.091569	5.900244	0.024648	-0.015374	0.307629	0.009094	0.005234	0.005555	-0.294434	0.073242	-0.801758	0.082221	0.000915	0.059000	1.000000	0.000045	0.000026	0.000028	0.574295	-0.112837	0.810835	0.179020	0.983794	0.010111	-0.798835	0.139349	0.585188
09243	0	8.234617	0.063409	5.915551	0.014483	-0.041916	0.326579	0.009169	0.000502	0.004580	-0.291992	0.073242	-0.797119	0.082346	0.000633	0.059155	1.000000	0.000046	0.000003	0.000023	0.574274	-0.112738	0.810864	0.178912	0.983813	0.010074	-0.798874	0.139289	0.585148
09244	0	8.234516	0.063750	5.915689	0.014479	-0.041917	0.326579	0.008894	0.002994	0.000102	-0.294434	0.073242	-0.804199	0.082346	0.000635	0.059156	1.000000	0.000044	0.000015	0.000001	0.574297	-0.112741	0.810846	0.178841	0.983826	0.010125	-0.798873	0.139198	0.585171
09245	0	8.236695	0.074608	5.893999	0.034685	-0.034165	0.315766	0.013060	0.003253	0.005647	-0.291992	0.071289	-0.806396	0.082368	0.000745	0.058939	1.000000	0.000065	0.000016	0.000028	0.574290	-0.112625	0.810868	0.178701	0.983852	0.010088	-0.798910	0.139110	0.585142
09246	0	8.219058	0.082293	5.922897	0.002910	-0.020909	0.318450	0.011152	-0.000489	0.004626	-0.291992	0.068848	-0.801758	0.082190	0.000822	0.059229	1.000000	0.000056	-0.000002	0.000023	0.574293	-0.112579	0.810872	0.178586	0.983872	0.010116	-0.798933	0.139000	0.585136
09247	0	8.203701	0.100412	5.929966	-0.008674	0.000024	0.310317	0.010642	0.006029	0.004262	-0.289795	0.073486	-0.811279	0.082039	0.001003	0.059297	1.000000	0.000053	0.000030	0.000021	0.574305	-0.112481	0.810877	0.178463	0.983895	0.010084	-0.798952	0.138920	0.585129
09248	0	8.190626	0.128886	5.915206	0.001054	0.027188	0.291365	0.011511	0.002460	0.006938	-0.285400	0.073486	-0.806396	0.081907	0.001288	0.059151	1.000000	0.000058	0.000012	0.000035	0.574336	-0.112416	0.810864	0.178330	0.983919	0.010096	-0.798959	0.138803	0.585147
09249	0	8.186600	0.098245	5.900491	0.005212	-0.004146	0.279181	0.013499	0.006555	0.006388	-0.287598	0.075684	-0.802002	0.081868	0.000981	0.059002	1.000000	0.000067	0.000033	0.000032	0.574382	-0.112314	0.810846	0.178195	0.983944	0.010061	-0.798957	0.138710	0.585173
09250	0	8.202838	0.101017	5.931149	-0.008907	0.000689	0.310316	0.010561	0.005676	0.005831	-0.292236	0.075684	-0.806641	0.082030	0.001009	0.059309	1.000000	0.000053	0.000028	0.000029	0.574437	-0.112264	0.810813	0.178077	0.983965	0.010077	-0.798943	0.138599	0.585218
09251	0	8.223764	0.124728	5.917986	0.018210	0.020190	0.319818	0.011676	0.008253	0.003201	-0.292236	0.075684	-0.802002	0.082240	0.001245	0.059177	1.000000	0.000058	0.000041	0.000016	0.574485	-0.112195	0.810789	0.177984	0.983982	0.010050	-0.798930	0.138533	0.585252
09252	0	8.236018	0.096576	5.933880	0.008470	-0.006978	0.338773	0.008423	0.011047	0.008326	-0.292236	0.077881	-0.802002	0.082363	0.000967	0.059334	1.000000	0.000042	0.000055	0.000042	0.574588	-0.112128	0.810725	0.177868	0.984003	0.010032	-0.798881	0.138438	0.585341
09253	0	8.237705	0.107118	5.912889	0.028784	0.000765	0.327958	0.007356	0.012372	0.000198	-0.287842	0.077881	-0.806641	0.082381	0.001069	0.059124	1.000000	0.000037	0.000062	0.000001	0.574649	-0.112094	0.810687	0.177833	0.984010	0.010004	-0.798845	0.138417	0.585395
09254	0	8.219502	0.115135	5.942531	-0.002987	0.014028	0.330633	0.010448	0.008872	-0.001788	-0.287354	0.069092	-0.801758	0.082198	0.001148	0.059422	1.000000	0.000052	0.000044	-0.000009	0.574717	-0.112124	0.810635	0.177760	0.984022	0.010080	-0.798813	0.138305	0.585465
09255	0	8.216459	0.105252	5.965385	-0.023899	0.007508	0.341448	0.005372	0.013364	0.000149	-0.291992	0.073486	-0.806396	0.082169	0.001051	0.059648	1.000000	0.000027	0.000067	0.000001	0.574811	-0.112109	0.810570	0.177720	0.984030	0.010071	-0.798754	0.138266	0.585555
09256	0	8.230954	0.087693	5.959523	-0.012885	-0.012699	0.349590	0.006320	0.010149	0.001257	-0.287598	0.073486	-0.801758	0.082313	0.000876	0.059591	1.000000	0.000032	0.000051	0.000006	0.574894	-0.112110	0.810511	0.177663	0.984040	0.010097	-0.798707	0.138193	0.585637
09257	0	8.168355	0.138882	5.950407	-0.032070	0.043565	0.294029	0.004846	0.004622	0.001577	-0.291992	0.071289	-0.804199	0.081685	0.001388	0.059502	1.000000	0.000024	0.000023	0.000008	0.574912	-0.112066	0.810504	0.177621	0.984048	0.010071	-0.798703	0.138172	0.585646
09258	0	8.180709	0.110741	5.966159	-0.041810	0.016409	0.312988	0.002868	0.010700	0.000930	-0.287598	0.073486	-0.799561	0.081810	0.001107	0.059657	1.000000	0.000014	0.000053	0.000005	0.574999	-0.112072	0.810442	0.177593	0.984052	0.010079	-0.798647	0.138133	0.585733
09259	0	8.167335	0.139098	5.951802	-0.032250	0.043834	0.294028	-0.000942	0.008301	-0.001707	-0.291992	0.073242	-0.797119	0.081676	0.001391	0.059515	1.000000	-0.000005	0.000042	-0.000009	0.575049	-0.112074	0.810406	0.177602	0.984051	0.010065	-0.798609	0.138142	0.585782
09260	0	8.164447	0.128764	5.974431	-0.053004	0.036887	0.304843	-0.000943	0.008301	-0.001707	-0.287598	0.071289	-0.806396	0.081647	0.001287	0.059741	1.000000	-0.000005	0.000042	-0.000009	0.575112	-0.112102	0.810357	0.177620	0.984048	0.010073	-0.798560	0.138142	0.585849
09261	0	8.149822	0.136711	5.922917	-0.018201	0.039106	0.262895	-0.000428	0.006870	-0.001938	-0.292236	0.077881	-0.799805	0.081500	0.001366	0.059226	1.000000	-0.000002	0.000034	-0.000010	0.575159	-0.112116	0.810322	0.177625	0.984047	0.010076	-0.798525	0.138138	0.585898
09262	0	8.147084	0.126352	5.945337	-0.038957	0.032158	0.273711	-0.001463	0.004646	-0.000878	-0.289795	0.073486	-0.804199	0.081472	0.001264	0.059451	1.000000	-0.000007	0.000023	-0.000004	0.575194	-0.112131	0.810295	0.177642	0.984044	0.010075	-0.798496	0.138148	0.585935
09263	0	8.196286	0.103674	5.940154	-0.010356	0.003868	0.310314	0.001469	0.000440	0.000279	-0.287598	0.071289	-0.806396	0.081963	0.001036	0.059401	1.000000	0.000007	0.000002	0.000001	0.575190	-0.112118	0.810300	0.177656	0.984041	0.010049	-0.798495	0.138174	0.585929
09264	0	8.213923	0.096267	5.911332	0.021406	-0.009382	0.307643	-0.000954	-0.001871	-0.000510	-0.290039	0.075684	-0.804199	0.082139	0.000963	0.059114	1.000000	-0.000005	-0.000009	-0.000003	0.575174	-0.112120	0.810311	0.177667	0.984039	0.010047	-0.798505	0.138187	0.585914
09265	0	8.232966	0.109384	5.919444	0.028215	0.002505	0.327959	-0.000792	-0.001166	-0.003650	-0.292236	0.075684	-0.799561	0.082329	0.001093	0.059195	1.000000	-0.000004	-0.000006	-0.000018	0.575171	-0.112153	0.810309	0.177704	0.984033	0.010061	-0.798498	0.138208	0.585917
09266	0	8.245642	0.081335	5.934756	0.018470	-0.024644	0.346919	0.000087	0.005439	-0.002169	-0.287842	0.077881	-0.802002	0.082458	0.000812	0.059345	1.000000	0.000000	0.000027	-0.000011	0.575210	-0.112181	0.810277	0.177716	0.984030	0.010078	-0.798467	0.138202	0.585961
09267	0	8.232469	0.109761	5.920128	0.028149	0.002969	0.327959	-0.000428	0.006870	-0.001938	-0.290039	0.080078	-0.797363	0.082327	0.001097	0.059198	1.000000	-0.000002	0.000034	-0.000010	0.575252	-0.112195	0.810245	0.177768	0.984021	0.010047	-0.798426	0.138256	0.586005
09268	0	8.231786	0.109916	5.921075	0.028145	0.002989	0.327959	-0.004742	0.016076	-0.005543	-0.292236	0.075684	-0.802002	0.082323	0.001098	0.059204	1.000000	-0.000024	0.000080	-0.000028	0.575370	-0.112271	0.810151	0.177839	0.984008	0.010062	-0.798325	0.138287	0.586135
09269	0	8.230912	0.109778	5.922292	0.027835	0.003589	0.327960	-0.001778	0.013408	0.004204	-0.290039	0.075684	-0.806641	0.082313	0.001100	0.059217	1.000000	-0.000009	0.000067	0.000021	0.575454	-0.112229	0.810097	0.177879	0.984002	0.009964	-0.798256	0.138366	0.586211
09270	0	8.208960	0.086202	5.936829	0.000434	-0.015130	0.318461	-0.000428	0.006871	-0.001939	-0.285400	0.075684	-0.797363	0.082092	0.000861	0.059365	1.000000	-0.000002	0.000034	-0.000010	0.575504	-0.112256	0.810058	0.177896	0.983999	0.009974	-0.798216	0.138366	0.586265
09271	0	8.193495	0.104123	5.943996	-0.010471	0.005351	0.310314	0.000954	0.001871	0.000510	-0.287842	0.077881	-0.802002	0.081936	0.001041	0.059439	1.000000	0.000005	0.000009	0.000003	0.575526	-0.112247	0.810044	0.177912	0.983996	0.009947	-0.798196	0.138392	0.586285
09272	0	8.174532	0.091157	5.935766	-0.017113	-0.006416	0.289999	0.000515	-0.001431	-0.000231	-0.287842	0.077881	-0.799805	0.081745	0.000911	0.059358	1.000000	0.000003	-0.000007	-0.000001	0.575513	-0.112246	0.810053	0.177912	0.983996	0.009948	-0.798206	0.138393	0.586272
09273	0	8.180657	0.132521	5.928904	-0.000591	0.033087	0.291348	0.001035	0.002224	-0.001060	-0.289795	0.075684	-0.799561	0.081807	0.001324	0.059288	1.000000	0.000005	0.000011	-0.000005	0.575534	-0.112247	0.810038	0.177965	0.983987	0.009907	-0.798179	0.138457	0.586294
09274	0	8.190792	0.093909	5.966350	-0.031098	-0.000964	0.321130	-0.000510	0.006518	-0.000369	-0.292236	0.080078	-0.797363	0.081910	0.000939	0.059661	1.000000	-0.000003	0.000033	-0.000002	0.575585	-0.112258	0.810000	0.177975	0.983985	0.009902	-0.798140	0.138460	0.586346
09275	0	8.194230	0.124769	5.981824	-0.035884	0.031685	0.333292	0.001907	0.003743	0.001020	-0.285400	0.073486	-0.804199	0.081943	0.001248	0.059817	1.000000	0.000010	0.000019	0.000005	0.575576	-0.112232	0.810010	0.178005	0.983980	0.009850	-0.798139	0.138516	0.586334
09276	0	8.192468	0.104474	5.945405	-0.010768	0.006671	0.310312	0.000092	0.010526	-0.002769	-0.287842	0.077881	-0.813721	0.081928	0.001044	0.059450	1.000000	0.000000	0.000053	-0.000014	0.575654	-0.112271	0.809949	0.178024	0.983977	0.009867	-0.798079	0.138510	0.586417
09277	0	8.190680	0.084087	5.909032	0.015057	-0.018287	0.287333	0.001310	0.004821	0.002820	-0.287598	0.073486	-0.799561	0.081908	0.000842	0.059088	1.000000	0.000007	0.000024	0.000014	0.575750	-0.112267	0.809882	0.178043	0.983974	0.009828	-0.798006	0.138536	0.586511
09278	0	8.209407	0.097115	5.917588	0.021699	-0.006419	0.307645	0.002504	0.002664	-0.000781	-0.285400	0.075684	-0.802002	0.082095	0.000970	0.059175	1.000000	0.000013	0.000013	-0.000004	0.575769	-0.112276	0.809867	0.178032	0.983975	0.009843	-0.797994	0.138515	0.586532
09279	0	8.224496	0.079469	5.910947	0.032967	-0.026592	0.315794	0.004405	0.001321	0.000838	-0.290039	0.077881	-0.804443	0.082245	0.000794	0.059109	1.000000	0.000022	0.000007	0.000004	0.575802	-0.112270	0.809844	0.177999	0.983981	0.009853	-0.797978	0.138478	0.586562
09280	0	8.225716	0.099999	5.948096	0.007852	-0.001452	0.338775	0.003809	0.002399	0.002639	-0.291992	0.073486	-0.804199	0.082258	0.001000	0.059480	1.000000	0.000019	0.000012	0.000013	0.575826	-0.112245	0.809831	0.177958	0.983989	0.009848	-0.797970	0.138445	0.586581
09281	0	8.204108	0.076644	5.962137	-0.019898	-0.019828	0.329282	0.004329	0.006054	0.001808	-0.287842	0.080078	-0.804443	0.082043	0.000766	0.059619	1.000000	0.000022	0.000030	0.000009	0.575845	-0.112225	0.809820	0.177945	0.983991	0.009829	-0.797959	0.138444	0.586597
09282	0	8.208576	0.097583	5.918733	0.021619	-0.005881	0.307646	0.004329	0.006055	0.001808	-0.285400	0.075684	-0.806641	0.082088	0.000975	0.059185	1.000000	0.000022	0.000030	0.000009	0.575896	-0.112213	0.809785	0.177905	0.983999	0.009833	-0.797931	0.138402	0.586644
09283	0	8.208153	0.097765	5.919316	0.022174	-0.005309	0.307645	0.005364	0.008279	0.000748	-0.285400	0.075684	-0.804199	0.082084	0.000976	0.059190	1.000000	0.000027	0.000041	0.000004	0.576000	-0.112215	0.809711	0.177934	0.983994	0.009792	-0.797849	0.138436	0.586748
09284	0	8.185154	0.084418	5.992703	-0.051086	-0.005831	0.331952	0.002702	0.009996	0.004068	-0.287598	0.073486	-0.799561	0.081855	0.000845	0.059923	1.000000	0.000014	0.000050	0.000020	0.576088	-0.112185	0.809652	0.177895	0.984001	0.009767	-0.797794	0.138406	0.586828
09285	0	8.157748	0.120677	5.926089	-0.006186	0.023488	0.271030	0.004574	0.007112	-0.002902	-0.287598	0.075684	-0.804199	0.081580	0.001204	0.059258	1.000000	0.000023	0.000036	-0.000015	0.576161	-0.112221	0.809596	0.177885	0.984002	0.009802	-0.797744	0.138368	0.586906
09286	0	8.204268	0.087814	5.943288	0.001727	-0.011986	0.318465	0.002345	0.007046	0.001758	-0.290039	0.075684	-0.806641	0.082045	0.000878	0.059430	1.000000	0.000012	0.000035	0.000009	0.576221	-0.112211	0.809554	0.177862	0.984007	0.009793	-0.797706	0.138346	0.586963
09287	0	8.154491	0.110547	5.949181	-0.026870	0.016962	0.281850	0.000959	0.006958	-0.000091	-0.287598	0.073486	-0.797119	0.081547	0.001105	0.059489	1.000000	0.000005	0.000035	-0.000000	0.576277	-0.112216	0.809514	0.177892	0.984002	0.009766	-0.797659	0.138378	0.587019
09288	0	8.166947	0.082399	5.964792	-0.036603	-0.010102	0.300824	0.001989	0.004096	-0.000551	-0.287598	0.075684	-0.797363	0.081671	0.000823	0.059646	1.000000	0.000010	0.000020	-0.000003	0.576309	-0.112224	0.809490	0.177885	0.984003	0.009774	-0.797637	0.138363	0.587053
09289	0	8.169125	0.092939	5.943178	-0.016072	-0.002970	0.290002	0.003375	0.004183	0.001299	-0.291992	0.068848	-0.803955	0.081692	0.000929	0.059430	1.000000	0.000017	0.000021	0.000006	0.576327	-0.112199	0.809481	0.177848	0.984010	0.009768	-0.797633	0.138335	0.587065
09290	0	8.187943	0.105951	5.951609	-0.009414	0.008925	0.310312	0.001386	0.000088	0.001850	-0.291992	0.071045	-0.797119	0.081879	0.001060	0.059516	1.000000	0.000007	0.000000	0.000009	0.576331	-0.112178	0.809480	0.177832	0.984013	0.009752	-0.797633	0.138331	0.587066
09291	0	8.164228	0.072080	5.987142	-0.058656	-0.017281	0.311637	0.003802	-0.002687	0.003240	-0.287842	0.080078	-0.804443	0.081641	0.000721	0.059873	1.000000	0.000019	-0.000013	0.000016	0.576238	-0.112131	0.809553	0.177690	0.984038	0.009820	-0.797732	0.138191	0.586964
09292	0	8.200720	0.077639	5.966782	-0.020259	-0.018671	0.329283	0.002860	0.005615	0.001528	-0.291992	0.073242	-0.799561	0.082009	0.000776	0.059666	1.000000	0.000014	0.000028	0.000008	0.576284	-0.112121	0.809522	0.177663	0.984042	0.009817	-0.797704	0.138165	0.587008
09293	0	8.186362	0.085717	5.914989	0.014395	-0.015938	0.287338	0.002668	0.003369	-0.003921	-0.290039	0.075684	-0.804199	0.081865	0.000855	0.059149	1.000000	0.000013	0.000017	-0.000020	0.576279	-0.112144	0.809522	0.177724	0.984032	0.009802	-0.797694	0.138223	0.587008
09294	0	8.234358	0.073213	5.968960	-0.002851	-0.026315	0.357750	0.001309	0.004822	0.002818	-0.287598	0.075684	-0.804199	0.082345	0.000733	0.059688	1.000000	0.000007	0.000024	0.000014	0.576321	-0.112120	0.809496	0.177703	0.984036	0.009779	-0.797669	0.138214	0.587045
09295	0	8.217731	0.070600	5.938906	0.011381	-0.030753	0.326623	0.001983	-0.000991	0.000050	-0.287842	0.077881	-0.802002	0.082177	0.000705	0.059389	1.000000	0.000010	-0.000005	0.000000	0.576318	-0.112108	0.809500	0.177729	0.984031	0.009745	-0.797665	0.138256	0.587039
09296	0	8.199932	0.078225	5.967858	-0.020389	-0.017386	0.329286	0.004410	0.006407	0.000237	-0.294434	0.077881	-0.802002	0.082001	0.000781	0.059676	1.000000	0.000022	0.000032	0.000001	0.576368	-0.112110	0.809464	0.177699	0.984037	0.009761	-0.797636	0.138215	0.587089
09297	0	8.233672	0.073558	5.969903	-0.003269	-0.024752	0.357754	0.002427	0.007399	0.000187	-0.287842	0.077881	-0.804443	0.082339	0.000735	0.059696	1.000000	0.000012	0.000037	0.000001	0.576375	-0.112087	0.809462	0.177766	0.984025	0.009681	-0.797616	0.138315	0.587093
09298	0	8.195291	0.047694	5.954064	-0.016569	-0.048272	0.317137	0.003380	0.009270	0.000696	-0.290283	0.082275	-0.802246	0.081956	0.000476	0.059537	1.000000	0.000017	0.000046	0.000003	0.576448	-0.112089	0.809410	0.177742	0.984029	0.009686	-0.797569	0.138283	0.587164
09299	0	8.166694	0.093891	5.946503	-0.017659	0.000499	0.290000	0.007104	0.011318	0.004905	-0.287598	0.075684	-0.802002	0.081670	0.000939	0.059460	1.000000	0.000036	0.000057	0.000025	0.576542	-0.112027	0.809351	0.177804	0.984020	0.009545	-0.797487	0.138403	0.587248
09300	0	8.159848	0.052755	5.954349	-0.034085	-0.038329	0.288676	0.005801	0.011582	0.001485	-0.287842	0.077881	-0.804443	0.081602	0.000526	0.059539	1.000000	0.000029	0.000058	0.000007	0.576635	-0.112024	0.809286	0.177758	0.984028	0.009556	-0.797430	0.138347	0.587338
09301	0	8.143950	0.070546	5.962061	-0.044766	-0.017414	0.280516	0.004955	0.011605	0.007994	-0.287598	0.073486	-0.799561	0.081443	0.000707	0.059616	1.000000	0.000025	0.000058	0.000040	0.576759	-0.111944	0.809208	0.177740	0.984032	0.009445	-0.797344	0.138381	0.587446
09302	0	8.108060	0.054872	5.924196	-0.037308	-0.033991	0.229085	0.008211	0.003721	0.003479	-0.287842	0.077881	-0.797363	0.081082	0.000548	0.059240	1.000000	0.000041	0.000019	0.000017	0.576793	-0.111910	0.809189	0.177663	0.984046	0.009453	-0.797337	0.138311	0.587473
09303	0	8.143329	0.070602	5.962908	-0.044909	-0.016686	0.280517	0.010028	0.002025	0.006670	-0.289795	0.075684	-0.799561	0.081434	0.000706	0.059628	1.000000	0.000050	0.000010	0.000033	0.576807	-0.111813	0.809192	0.177569	0.984063	0.009402	-0.797347	0.138264	0.587470
09304	0	8.124338	0.057584	5.954711	-0.051574	-0.028365	0.260212	0.008992	-0.000199	0.007731	-0.287842	0.077881	-0.799805	0.081243	0.000576	0.059547	1.000000	0.000045	-0.000001	0.000039	0.576817	-0.111731	0.809196	0.177462	0.984083	0.009379	-0.797364	0.138191	0.587464
09305	0	8.143327	0.070546	5.962912	-0.045153	-0.015644	0.280517	0.010975	-0.001190	0.007781	-0.292236	0.075684	-0.799561	0.081433	0.000705	0.059630	1.000000	0.000055	-0.000006	0.000039	0.576796	-0.111614	0.809227	0.177388	0.984097	0.009296	-0.797396	0.138186	0.587422
09306	0	8.161110	0.063084	5.934015	-0.013427	-0.028790	0.277864	0.010022	-0.003061	0.007272	-0.287598	0.075684	-0.799561	0.081610	0.000631	0.059341	1.000000	0.000050	-0.000015	0.000036	0.576781	-0.111532	0.809249	0.177276	0.984117	0.009282	-0.797431	0.138107	0.587392
09307	0	8.181427	0.096608	5.979142	-0.032440	0.008872	0.321122	0.010543	0.000594	0.006439	-0.290039	0.075684	-0.808838	0.081814	0.000966	0.059791	1.000000	0.000053	0.000003	0.000032	0.576750	-0.111427	0.809286	0.177182	0.984135	0.009230	-0.797475	0.138067	0.587342
09308	0	8.214328	0.071218	5.943604	0.010266	-0.024479	0.326641	0.009424	-0.001981	0.009071	-0.294434	0.077881	-0.802002	0.082143	0.000713	0.059437	1.000000	0.000047	-0.000010	0.000045	0.576746	-0.111328	0.809303	0.177064	0.984156	0.009197	-0.797504	0.137994	0.587320
09309	0	8.216788	0.081722	5.921626	0.030446	-0.016600	0.315824	0.012177	0.001737	0.003578	-0.281006	0.080078	-0.806885	0.082168	0.000815	0.059216	1.000000	0.000061	0.000009	0.000018	0.576710	-0.111262	0.809337	0.177022	0.984164	0.009156	-0.797539	0.137990	0.587273
09310	0	8.214184	0.071398	5.943802	0.009630	-0.023352	0.326644	0.005980	0.003658	0.008135	-0.285645	0.080078	-0.809082	0.082143	0.000716	0.059437	1.000000	0.000030	0.000018	0.000041	0.576748	-0.111180	0.809321	0.176938	0.984180	0.009110	-0.797530	0.137945	0.587296
09311	0	8.245703	0.056041	5.967514	0.008753	-0.037331	0.365943	0.011496	0.002466	0.006946	-0.289795	0.073486	-0.806396	0.082458	0.000560	0.059674	1.000000	0.000057	0.000012	0.000035	0.576938	-0.111136	0.809192	0.177025	0.984166	0.008952	-0.797374	0.138082	0.587476
09312	0	8.197286	0.068778	5.914138	0.025973	-0.026769	0.295521	0.009081	0.005241	0.005553	-0.287842	0.077881	-0.802002	0.081974	0.000687	0.059139	1.000000	0.000045	0.000026	0.000028	0.576987	-0.111081	0.809165	0.176932	0.984182	0.008943	-0.797359	0.138007	0.587514
09313	0	8.213504	0.071537	5.944738	0.011906	-0.021234	0.326647	0.011064	0.004249	0.005604	-0.285400	0.073486	-0.799561	0.082136	0.000714	0.059446	1.000000	0.000055	0.000021	0.000028	0.577029	-0.111009	0.809144	0.176858	0.984196	0.008901	-0.797345	0.137967	0.587542
09314	0	8.196751	0.069178	5.914875	0.025997	-0.025970	0.295523	0.011147	0.004600	0.004034	-0.287842	0.080078	-0.799805	0.081969	0.000690	0.059147	1.000000	0.000056	0.000023	0.000020	0.577070	-0.110968	0.809121	0.176758	0.984214	0.008917	-0.797338	0.137873	0.587574
09315	0	8.213078	0.071927	5.945323	0.012114	-0.020112	0.326649	0.007091	0.001146	0.006107	-0.287598	0.075684	-0.804199	0.082131	0.000720	0.059453	1.000000	0.000035	0.000006	0.000031	0.577100	-0.110874	0.809112	0.176735	0.984219	0.008813	-0.797320	0.137913	0.587588
09316	0	8.215304	0.082529	5.923674	0.032858	-0.013018	0.315821	0.010799	0.006734	0.001121	-0.283203	0.075684	-0.799561	0.082155	0.000823	0.059234	1.000000	0.000054	0.000034	0.000006	0.577153	-0.110865	0.809076	0.176655	0.984233	0.008849	-0.797300	0.137820	0.587638
09317	0	8.214738	0.082686	5.924456	0.033571	-0.012449	0.315820	0.007893	0.012490	0.008542	-0.290039	0.077881	-0.806641	0.082151	0.000828	0.059239	1.000000	0.000039	0.000062	0.000043	0.577319	-0.110784	0.808968	0.176598	0.984244	0.008758	-0.797192	0.137806	0.587787
09318	0	8.195163	0.069701	5.917070	0.026905	-0.024080	0.295525	0.008218	0.008807	0.002868	-0.290039	0.077881	-0.795166	0.081954	0.000696	0.059167	1.000000	0.000041	0.000044	0.000014	0.577392	-0.110760	0.808919	0.176529	0.984256	0.008764	-0.797155	0.137738	0.587854
09319	0	8.192178	0.059591	5.939754	0.005352	-0.029565	0.306359	0.008218	0.008807	0.002867	-0.287598	0.075684	-0.797363	0.081924	0.000595	0.059394	1.000000	0.000041	0.000044	0.000014	0.577393	-0.110685	0.808929	0.176541	0.984255	0.008664	-0.797151	0.137807	0.587842
09320	0	8.176570	0.077681	5.947048	-0.005651	-0.009142	0.298178	0.007695	0.005152	0.003702	-0.291992	0.073242	-0.799561	0.081767	0.000776	0.059468	1.000000	0.000038	0.000026	0.000019	0.577437	-0.110647	0.808903	0.176473	0.984267	0.008659	-0.797135	0.137749	0.587879
09321	0	8.188939	0.049634	5.962782	-0.016602	-0.035680	0.317189	0.007264	0.006935	0.002360	-0.290039	0.077881	-0.799805	0.081891	0.000495	0.059625	1.000000	0.000036	0.000035	0.000012	0.577406	-0.110569	0.808936	0.176369	0.984286	0.008647	-0.797180	0.137678	0.587833
09322	0	8.194753	0.091145	5.956350	-0.000201	0.003473	0.318471	0.005880	0.006846	0.000510	-0.296875	0.077637	-0.797363	0.081950	0.000910	0.059561	1.000000	0.000029	0.000034	0.000003	0.577456	-0.110565	0.808900	0.176333	0.984292	0.008658	-0.797152	0.137636	0.587882
09323	0	8.175431	0.078259	5.948607	-0.008987	-0.006704	0.298178	0.005629	0.005794	0.005220	-0.287842	0.080078	-0.804443	0.081756	0.000783	0.059484	1.000000	0.000028	0.000029	0.000026	0.577331	-0.110430	0.809008	0.176328	0.984295	0.008524	-0.797244	0.137730	0.587735
09324	0	8.190223	0.060422	5.942442	0.001920	-0.026685	0.306369	0.003898	0.007838	0.000458	-0.291992	0.073486	-0.801758	0.081905	0.000603	0.059421	1.000000	0.000019	0.000039	0.000002	0.577387	-0.110427	0.808969	0.176310	0.984298	0.008522	-0.797207	0.137709	0.587790
09325	0	8.170789	0.047464	5.934854	-0.005279	-0.037448	0.286080	0.003216	0.008569	0.003825	-0.287598	0.075684	-0.804199	0.081710	0.000475	0.059345	1.000000	0.000016	0.000043	0.000019	0.577408	-0.110363	0.808962	0.176345	0.984292	0.008414	-0.797184	0.137798	0.587801
09326	0	8.189333	0.060508	5.943667	0.001293	-0.025373	0.306372	0.006310	0.005063	0.001852	-0.287598	0.075684	-0.799561	0.081895	0.000604	0.059435	1.000000	0.000032	0.000025	0.000009	0.577444	-0.110342	0.808940	0.176300	0.984301	0.008414	-0.797168	0.137757	0.587832
09327	0	8.191498	0.071028	5.922126	0.022044	-0.017788	0.295550	0.001476	0.005526	-0.000329	-0.287598	0.075684	-0.799561	0.081917	0.000710	0.059219	1.000000	0.000007	0.000028	-0.000002	0.577480	-0.110325	0.808916	0.176337	0.984294	0.008358	-0.797133	0.137815	0.587865
09328	0	8.188797	0.060708	5.944404	0.001194	-0.024432	0.306375	0.002337	0.001961	0.002357	-0.290283	0.082275	-0.804443	0.081889	0.000607	0.059443	1.000000	0.000012	0.000010	0.000012	0.577492	-0.110294	0.808912	0.176321	0.984297	0.008330	-0.797128	0.137818	0.587871
09329	0	8.188602	0.060760	5.944671	0.000880	-0.022749	0.306378	0.004843	0.004624	0.001573	-0.290039	0.080078	-0.804443	0.081887	0.000607	0.059445	1.000000	0.000024	0.000023	0.000008	0.577488	-0.110246	0.808921	0.176439	0.984278	0.008186	-0.797105	0.137998	0.587860
09330	0	8.188395	0.060845	5.944956	0.000798	-0.022489	0.306379	0.003805	0.002401	0.002636	-0.290039	0.080078	-0.799805	0.081885	0.000608	0.059449	1.000000	0.000019	0.000012	0.000013	0.577504	-0.110213	0.808915	0.176410	0.984283	0.008163	-0.797100	0.137987	0.587870
09331	0	8.202265	0.053211	5.997315	-0.034723	-0.022373	0.348319	0.005787	0.001409	0.002689	-0.287598	0.075684	-0.797363	0.082023	0.000531	0.059973	1.000000	0.000029	0.000007	0.000013	0.577447	-0.110142	0.808964	0.176546	0.984260	0.007988	-0.797111	0.138207	0.587803
09332	0	8.188146	0.060992	5.945297	0.000088	-0.020188	0.306384	-0.000945	0.003214	-0.001116	-0.287598	0.075684	-0.794922	0.081882	0.000610	0.059452	1.000000	-0.000005	0.000016	-0.000006	0.577462	-0.110146	0.808954	0.176579	0.984254	0.007965	-0.797093	0.138244	0.587819
09333	0	8.203095	0.043228	5.938927	0.010353	-0.039623	0.314594	0.006310	0.005063	0.001852	-0.289795	0.075684	-0.794922	0.082032	0.000431	0.059387	1.000000	0.000032	0.000025	0.000009	0.577450	-0.110065	0.808973	0.176506	0.984268	0.007924	-0.797118	0.138213	0.587793
09334	0	8.185048	0.051075	5.968110	-0.021485	-0.025997	0.317210	0.007348	0.007286	0.000788	-0.289795	0.075684	-0.799561	0.081853	0.000509	0.059678	1.000000	0.000037	0.000036	0.000004	0.577500	-0.110056	0.808939	0.176461	0.984276	0.007935	-0.797092	0.138164	0.587840
09335	0	8.184749	0.051334	5.968518	-0.022813	-0.025115	0.317209	0.003889	0.002752	0.001066	-0.290039	0.077881	-0.804443	0.081848	0.000513	0.059684	1.000000	0.000019	0.000014	0.000005	0.577418	-0.109969	0.809009	0.176407	0.984286	0.007886	-0.797163	0.138162	0.587743
09336	0	8.180851	0.020679	5.953755	-0.018616	-0.056881	0.305137	0.007339	0.002199	0.001398	-0.285400	0.075684	-0.804199	0.081809	0.000205	0.059537	1.000000	0.000037	0.000011	0.000007	0.577427	-0.109946	0.809006	0.176360	0.984294	0.007891	-0.797167	0.138120	0.587748
09337	0	8.167977	0.049368	5.938707	-0.008494	-0.028905	0.286106	0.010358	0.003429	0.000387	-0.281006	0.075684	-0.799561	0.081681	0.000491	0.059386	1.000000	0.000052	0.000017	0.000002	0.577468	-0.109936	0.808978	0.176380	0.984291	0.007856	-0.797133	0.138151	0.587787
09338	0	8.170395	0.060141	5.916825	0.012173	-0.021741	0.275284	0.008283	-0.001015	0.002515	-0.285645	0.080078	-0.804443	0.081704	0.000600	0.059169	1.000000	0.000041	-0.000005	0.000013	0.577453	-0.109898	0.808994	0.176319	0.984302	0.007857	-0.797157	0.138104	0.587765
09339	0	8.184457	0.052549	5.968907	-0.021135	-0.022533	0.317219	0.008030	-0.002064	0.007225	-0.287842	0.080078	-0.802002	0.081844	0.000526	0.059690	1.000000	0.000040	-0.000010	0.000036	0.577560	-0.109838	0.808925	0.176387	0.984291	0.007711	-0.797065	0.138231	0.587861
09340	0	8.218528	0.047791	5.970564	-0.003618	-0.030587	0.345716	0.009760	0.004511	0.002183	-0.287842	0.080078	-0.802002	0.082187	0.000476	0.059704	1.000000	0.000049	0.000023	0.000011	0.577590	-0.109810	0.808908	0.176317	0.984303	0.007723	-0.797058	0.138164	0.587885
09341	0	8.201864	0.045679	5.940609	0.010602	-0.033589	0.314615	0.012340	0.002437	0.000439	-0.285400	0.077881	-0.802002	0.082019	0.000453	0.059405	1.000000	0.000062	0.000012	0.000002	0.577593	-0.109783	0.808909	0.176445	0.984281	0.007595	-0.797028	0.138342	0.587884
09342	0	8.233220	0.030910	5.964556	0.007337	-0.048478	0.353944	0.010114	0.007466	0.004485	-0.285400	0.073486	-0.806396	0.082334	0.000308	0.059643	1.000000	0.000051	0.000037	0.000022	0.577651	-0.109736	0.808874	0.176360	0.984296	0.007588	-0.797005	0.138270	0.587932
09343	0	8.202368	0.067083	5.978569	-0.013608	-0.007576	0.337504	0.010283	0.008166	0.001344	-0.285645	0.080078	-0.804443	0.082026	0.000668	0.059782	1.000000	0.000051	0.000041	0.000007	0.577787	-0.109741	0.808777	0.176348	0.984299	0.007575	-0.796909	0.138250	0.588067
09344	0	8.185441	0.064848	5.948980	0.000431	-0.012255	0.306397	0.010198	0.007816	0.002914	-0.292236	0.075684	-0.799561	0.081857	0.000647	0.059487	1.000000	0.000051	0.000039	0.000015	0.577845	-0.109710	0.808739	0.176272	0.984312	0.007581	-0.796883	0.138177	0.588119
09345	0	8.221640	0.070532	5.929173	0.038300	-0.012338	0.324068	0.008646	0.007027	0.004205	-0.287842	0.077881	-0.804443	0.082218	0.000704	0.059289	1.000000	0.000043	0.000035	0.000021	0.577854	-0.109632	0.808743	0.176295	0.984309	0.007467	-0.796872	0.138262	0.588114
09346	0	8.199586	0.047382	5.943740	0.010771	-0.030706	0.314624	0.008141	0.013546	0.003818	-0.289795	0.073486	-0.804199	0.082000	0.000473	0.059432	1.000000	0.000041	0.000068	0.000019	0.577959	-0.109599	0.808673	0.176230	0.984321	0.007453	-0.796810	0.138205	0.588212
09347	0	8.162165	0.042080	5.965212	-0.027983	-0.028520	0.296955	0.005206	0.012666	0.003258	-0.290039	0.077881	-0.806641	0.081625	0.000421	0.059647	1.000000	0.000026	0.000063	0.000016	0.578032	-0.109555	0.808627	0.176211	0.984325	0.007398	-0.796762	0.138213	0.588275
09348	0	8.185309	0.075986	5.930615	0.020153	-0.002637	0.295569	0.009777	0.014684	0.000956	-0.287598	0.075684	-0.802002	0.081857	0.000757	0.059300	1.000000	0.000049	0.000073	0.000005	0.578141	-0.109552	0.808549	0.176150	0.984335	0.007417	-0.796696	0.138138	0.588382
09349	0	8.165674	0.063435	5.923303	0.013121	-0.013475	0.275297	0.005450	0.008628	-0.000840	-0.294434	0.077881	-0.802002	0.081659	0.000632	0.059230	1.000000	0.000027	0.000043	-0.000004	0.578168	-0.109542	0.808531	0.176200	0.984327	0.007362	-0.796665	0.138207	0.588408
09350	0	8.150155	0.081956	5.930408	0.002086	0.007080	0.267066	0.009574	0.002255	-0.003259	-0.287842	0.077881	-0.804443	0.081502	0.000815	0.059303	1.000000	0.000048	0.000011	-0.000016	0.578170	-0.109563	0.808527	0.176165	0.984333	0.007413	-0.796671	0.138149	0.588413
09351	0	8.179037	0.057241	5.976289	-0.023197	-0.013429	0.317230	0.010013	0.005559	-0.002529	-0.287842	0.080078	-0.804443	0.081792	0.000568	0.059761	1.000000	0.000050	0.000028	-0.000013	0.578093	-0.109533	0.808586	0.176199	0.984327	0.007366	-0.796720	0.138214	0.588332
09352	0	8.196535	0.050365	5.947922	0.008418	-0.026454	0.314639	0.008021	0.001466	-0.001969	-0.289795	0.075684	-0.802002	0.081966	0.000500	0.059479	1.000000	0.000040	0.000007	-0.000010	0.578090	-0.109540	0.808587	0.176170	0.984332	0.007397	-0.796729	0.138173	0.588330
09353	0	8.193922	0.040728	5.970044	-0.012818	-0.031890	0.325471	0.009489	0.001906	-0.001689	-0.287842	0.077881	-0.804443	0.081940	0.000404	0.059700	1.000000	0.000047	0.000010	-0.000008	0.578052	-0.109523	0.808617	0.176233	0.984321	0.007338	-0.796742	0.138264	0.588290
09354	0	8.246911	0.049431	5.980024	0.011323	-0.028007	0.374253	0.007936	0.001117	-0.000398	-0.289795	0.075684	-0.799561	0.082469	0.000492	0.059800	1.000000	0.000040	0.000006	-0.000002	0.578048	-0.109513	0.808621	0.176197	0.984328	0.007354	-0.796753	0.138225	0.588284
09355	0	8.196234	0.052119	5.948322	0.007211	-0.023598	0.314647	0.007422	0.002549	-0.000173	-0.287842	0.077881	-0.806641	0.081963	0.000519	0.059482	1.000000	0.000037	0.000013	-0.000001	0.578009	-0.109469	0.808655	0.176203	0.984327	0.007303	-0.796780	0.138266	0.588238
09356	0	8.211135	0.034846	5.942073	0.018022	-0.043442	0.322892	0.010965	0.007432	-0.002026	-0.287842	0.080078	-0.804443	0.082114	0.000344	0.059418	1.000000	0.000055	0.000037	-0.000010	0.578052	-0.109484	0.808622	0.176152	0.984336	0.007350	-0.796760	0.138191	0.588283
09357	0	8.195520	0.053218	5.949296	0.007358	-0.021610	0.314651	0.007175	0.006590	0.003923	-0.287598	0.073486	-0.799561	0.081957	0.000532	0.059490	1.000000	0.000036	0.000033	0.000020	0.578109	-0.109454	0.808585	0.176294	0.984311	0.007197	-0.796687	0.138388	0.588335
09358	0	8.193988	0.033010	5.912818	0.032296	-0.046495	0.291804	0.010441	0.003778	-0.001185	-0.290039	0.077881	-0.795166	0.081941	0.000327	0.059127	1.000000	0.000052	0.000019	-0.000006	0.578125	-0.109455	0.808573	0.176243	0.984320	0.007233	-0.796687	0.138324	0.588351
09359	0	8.215303	0.057041	5.899273	0.058415	-0.026886	0.301251	0.012852	0.001005	0.000215	-0.283203	0.077881	-0.804443	0.082153	0.000567	0.058992	1.000000	0.000064	0.000005	0.000001	0.578031	-0.109351	0.808655	0.176087	0.984348	0.007241	-0.796789	0.138208	0.588239
09360	0	8.194981	0.055053	5.950022	0.005775	-0.019925	0.314655	0.010870	0.001998	0.000160	-0.290039	0.077881	-0.802002	0.081950	0.000547	0.059499	1.000000	0.000054	0.000010	0.000001	0.578034	-0.109336	0.808654	0.176025	0.984359	0.007268	-0.796801	0.138142	0.588239
09361	0	8.160713	0.060659	5.948581	-0.011467	-0.010268	0.286139	0.010955	0.002346	-0.001411	-0.287598	0.075684	-0.806641	0.081608	0.000603	0.059485	1.000000	0.000055	0.000012	-0.000007	0.578060	-0.109345	0.808635	0.176112	0.984344	0.007209	-0.796763	0.138243	0.588267
09362	0	8.194766	0.056514	5.950304	0.005993	-0.018212	0.314658	0.010002	0.000473	-0.001915	-0.290039	0.077881	-0.804443	0.081948	0.000561	0.059503	1.000000	0.000050	0.000002	-0.000010	0.578048	-0.109348	0.808643	0.176069	0.984351	0.007247	-0.796781	0.138188	0.588255
09363	0	8.179614	0.075039	5.956869	-0.005169	0.003023	0.306402	0.008879	-0.002096	0.000722	-0.287598	0.073486	-0.804199	0.081796	0.000748	0.059570	1.000000	0.000044	-0.000010	0.000004	0.578000	-0.109323	0.808681	0.176108	0.984344	0.007198	-0.796807	0.138255	0.588204
09364	0	8.160801	0.062497	5.948441	-0.011959	-0.008456	0.286140	0.008879	-0.002096	0.000722	-0.290039	0.075684	-0.804199	0.081607	0.000623	0.059485	1.000000	0.000044	-0.000010	0.000004	0.577972	-0.109297	0.808705	0.176060	0.984353	0.007208	-0.796839	0.138214	0.588171
09365	0	8.173651	0.034792	5.963571	-0.022333	-0.035102	0.305229	0.009393	-0.003528	0.000498	-0.287598	0.075684	-0.804199	0.081735	0.000345	0.059637	1.000000	0.000047	-0.000018	0.000002	0.577905	-0.109254	0.808758	0.175976	0.984368	0.007231	-0.796906	0.138143	0.588097
09366	0	8.176396	0.045715	5.941251	-0.001669	-0.027898	0.294401	0.011460	-0.004173	-0.001019	-0.289795	0.075684	-0.799561	0.081763	0.000453	0.059414	1.000000	0.000057	-0.000021	-0.000005	0.577856	-0.109242	0.808794	0.175917	0.984378	0.007271	-0.796954	0.138079	0.588047
09367	0	8.191917	0.028386	5.934171	0.008622	-0.047292	0.302667	0.011719	-0.006649	0.003469	-0.292236	0.075684	-0.799561	0.081917	0.000282	0.059344	1.000000	0.000059	-0.000033	0.000017	0.577756	-0.109147	0.808879	0.175828	0.984394	0.007242	-0.797046	0.138039	0.587931
09368	0	8.193548	0.049612	5.970490	-0.016566	-0.021601	0.325493	0.015252	-0.006852	0.002231	-0.287598	0.075684	-0.802002	0.081933	0.000492	0.059708	1.000000	0.000076	-0.000034	0.000011	0.577692	-0.109099	0.808931	0.175720	0.984413	0.007278	-0.797116	0.137941	0.587858
09369	0	8.217978	0.083854	5.934074	0.030554	0.004837	0.324101	0.015681	-0.008632	0.003577	-0.283203	0.077881	-0.806641	0.082177	0.000835	0.059344	1.000000	0.000078	-0.000043	0.000018	0.577537	-0.108978	0.809058	0.175577	0.984439	0.007268	-0.797260	0.137854	0.587684
09370	0	8.227391	0.025373	5.933924	0.024778	-0.053871	0.331204	0.013784	-0.007293	0.001951	-0.290039	0.077881	-0.806641	0.082272	0.000250	0.059342	1.000000	0.000069	-0.000036	0.000010	0.577468	-0.108932	0.809113	0.175482	0.984456	0.007297	-0.797331	0.137771	0.587607
09371	0	8.216354	0.074994	5.954837	0.010627	-0.000276	0.334926	0.015336	-0.006505	0.000658	-0.290039	0.075684	-0.806641	0.082162	0.000746	0.059551	1.000000	0.000077	-0.000033	0.000003	0.577473	-0.108952	0.809107	0.175592	0.984436	0.007238	-0.797303	0.137893	0.587617
09372	0	8.219285	0.085948	5.932234	0.031290	0.006931	0.324097	0.013699	-0.007639	0.003521	-0.289795	0.071289	-0.799561	0.082191	0.000857	0.059326	1.000000	0.000068	-0.000038	0.000018	0.577405	-0.108890	0.809164	0.175490	0.984455	0.007252	-0.797375	0.137813	0.587538
09373	0	8.217059	0.076338	5.953847	0.009625	0.000349	0.334927	0.015260	-0.001766	0.001608	-0.287598	0.075684	-0.808838	0.082170	0.000759	0.059539	1.000000	0.000076	-0.000009	0.000008	0.577331	-0.108820	0.809227	0.175298	0.984488	0.007324	-0.797471	0.137628	0.587451
09374	0	8.198307	0.063887	5.945349	0.002819	-0.011130	0.314670	0.014053	-0.004680	0.005818	-0.287598	0.071289	-0.804199	0.081982	0.000637	0.059455	1.000000	0.000070	-0.000023	0.000029	0.577289	-0.108739	0.809267	0.175180	0.984509	0.007322	-0.797527	0.137540	0.587395
09375	0	8.204800	0.105522	5.937850	0.019844	0.027786	0.315825	0.012241	-0.002994	0.002622	-0.292236	0.075684	-0.802002	0.082047	0.001053	0.059380	1.000000	0.000061	-0.000015	0.000013	0.577305	-0.108724	0.809258	0.175095	0.984524	0.007363	-0.797534	0.137446	0.587407
09376	0	8.213874	0.047071	5.938201	0.014061	-0.030919	0.322944	0.013877	-0.001860	-0.000242	-0.285400	0.073486	-0.801758	0.082138	0.000466	0.059383	1.000000	0.000069	-0.000009	-0.000001	0.577275	-0.108708	0.809281	0.175012	0.984538	0.007410	-0.797574	0.137357	0.587375
09377	0	8.179770	0.052674	5.936549	-0.003990	-0.021968	0.294415	0.014147	0.000753	0.003625	-0.289795	0.073486	-0.799561	0.081798	0.000524	0.059365	1.000000	0.000071	0.000004	0.000018	0.577248	-0.108629	0.809311	0.174888	0.984560	0.007411	-0.797621	0.137261	0.587333
09378	0	8.198624	0.066316	5.944886	0.002531	-0.009676	0.314672	0.012335	0.002438	0.000429	-0.289795	0.073486	-0.804199	0.081987	0.000660	0.059448	1.000000	0.000062	0.000012	0.000002	0.577254	-0.108611	0.809309	0.174814	0.984573	0.007443	-0.797633	0.137182	0.587336
09379	0	8.185855	0.095301	5.929584	0.011554	0.017698	0.295567	0.016297	0.000454	0.000537	-0.291992	0.073486	-0.804199	0.081859	0.000948	0.059296	1.000000	0.000081	0.000002	0.000003	0.577194	-0.108550	0.809361	0.174634	0.984605	0.007514	-0.797716	0.137005	0.587264
09380	0	8.180864	0.075587	5.973584	-0.030197	0.004518	0.317220	0.011811	-0.001214	0.001274	-0.289795	0.073486	-0.804199	0.081808	0.000753	0.059736	1.000000	0.000059	-0.000006	0.000006	0.577171	-0.108520	0.809381	0.174559	0.984618	0.007536	-0.797748	0.136935	0.587236
09381	0	8.182106	0.065613	5.914736	0.014723	-0.013622	0.283592	0.012165	0.001746	0.003569	-0.285400	0.077881	-0.806641	0.081822	0.000654	0.059147	1.000000	0.000061	0.000009	0.000018	0.577118	-0.108445	0.809428	0.174422	0.984642	0.007558	-0.797817	0.136820	0.587170
09382	0	8.169445	0.094502	5.899276	0.024464	0.013778	0.264487	0.017324	-0.002411	0.000089	-0.289795	0.073486	-0.799561	0.081694	0.000940	0.058994	1.000000	0.000087	-0.000012	0.000000	0.577084	-0.108424	0.809456	0.174310	0.984661	0.007623	-0.797866	0.136697	0.587132
09383	0	8.198571	0.070111	5.944915	0.000707	-0.007149	0.314674	0.017249	0.002328	0.001036	-0.292480	0.082275	-0.797607	0.081986	0.000696	0.059448	1.000000	0.000086	0.000012	0.000005	0.577115	-0.108408	0.809436	0.174282	0.984666	0.007616	-0.797850	0.136675	0.587159
09384	0	8.220000	0.094287	5.931115	0.028019	0.011935	0.324102	0.015343	-0.001419	0.000034	-0.287598	0.073486	-0.804199	0.082200	0.000938	0.059312	1.000000	0.000077	-0.000007	0.000000	0.577088	-0.108389	0.809457	0.174187	0.984683	0.007669	-0.797890	0.136571	0.587129
09385	0	8.198526	0.071860	5.944956	-0.000191	-0.004865	0.314675	0.018546	0.002078	0.004454	-0.287842	0.077881	-0.804443	0.081986	0.000715	0.059449	1.000000	0.000093	0.000010	0.000022	0.577034	-0.108297	0.809508	0.174184	0.984684	0.007570	-0.797930	0.136635	0.587059
09386	0	8.222470	0.106073	5.909112	0.047924	0.021007	0.313276	0.018106	-0.001229	0.003730	-0.290039	0.080078	-0.802002	0.082224	0.001057	0.059092	1.000000	0.000091	-0.000006	0.000019	0.577015	-0.108242	0.809529	0.174046	0.984708	0.007609	-0.797974	0.136505	0.587030
09387	0	8.201051	0.083348	5.922884	0.020487	0.004402	0.303849	0.013975	0.000065	0.006763	-0.289795	0.075684	-0.802002	0.082011	0.000832	0.059229	1.000000	0.000070	0.000000	0.000034	0.577000	-0.108166	0.809550	0.174165	0.984688	0.007432	-0.797959	0.136707	0.587004
09388	0	8.235134	0.079005	5.924562	0.037888	-0.003480	0.332393	0.015781	0.001887	0.000755	-0.289795	0.075684	-0.799561	0.082352	0.000786	0.059245	1.000000	0.000079	0.000009	0.000004	0.577000	-0.108143	0.809553	0.174063	0.984706	0.007479	-0.797980	0.136598	0.587000
09389	0	8.217242	0.087279	5.953444	0.005417	0.011139	0.334924	0.013900	0.004805	0.007708	-0.290039	0.077881	-0.799805	0.082174	0.000872	0.059533	1.000000	0.000070	0.000024	0.000039	0.576983	-0.108019	0.809582	0.173975	0.984722	0.007397	-0.798012	0.136579	0.586961
09390	0	8.216938	0.087866	5.953855	0.005255	0.011578	0.334924	0.016305	0.005539	-0.000094	-0.289795	0.073486	-0.804199	0.082171	0.000874	0.059536	1.000000	0.000082	0.000028	-0.000000	0.577011	-0.108010	0.809563	0.173875	0.984740	0.007454	-0.798014	0.136462	0.586986
09391	0	8.221658	0.109140	5.910186	0.046227	0.026254	0.313272	0.014753	0.004753	0.001199	-0.291992	0.073486	-0.804199	0.082218	0.001088	0.059100	1.000000	0.000074	0.000024	0.000006	0.576989	-0.107964	0.809585	0.173838	0.984746	0.007429	-0.798038	0.136450	0.586956
09392	0	8.163276	0.081378	5.944815	-0.019776	0.009576	0.286127	0.013286	0.004312	0.000922	-0.290039	0.075684	-0.813477	0.081634	0.000810	0.059446	1.000000	0.000066	0.000022	0.000005	0.577008	-0.107943	0.809574	0.173756	0.984760	0.007460	-0.798042	0.136364	0.586970
09393	0	8.199742	0.087411	5.924638	0.018323	0.008672	0.303851	0.017161	0.001983	0.002602	-0.285156	0.071289	-0.801758	0.081998	0.000870	0.059246	1.000000	0.000086	0.000010	0.000013	0.576994	-0.107940	0.809584	0.173726	0.984766	0.007481	-0.798058	0.136329	0.586956
09394	0	8.180677	0.075180	5.916599	0.011492	-0.002790	0.283605	0.017161	0.001984	0.002602	-0.292236	0.075684	-0.799561	0.081807	0.000748	0.059165	1.000000	0.000086	0.000010	0.000013	0.576998	-0.107899	0.809587	0.173604	0.984787	0.007520	-0.798082	0.136208	0.586951
09395	0	8.203288	0.119943	5.939665	0.013442	0.041757	0.315788	0.017076	0.001639	0.004173	-0.287842	0.077881	-0.799805	0.082033	0.001196	0.059396	1.000000	0.000085	0.000008	0.000021	0.576979	-0.107811	0.809612	0.173431	0.984817	0.007545	-0.798133	0.136059	0.586917
09396	0	8.165457	0.094484	5.923188	-0.000053	0.018385	0.275298	0.015598	-0.003886	0.004525	-0.287598	0.071289	-0.804199	0.081653	0.000942	0.059234	1.000000	0.000078	-0.000019	0.000023	0.576939	-0.107744	0.809649	0.173311	0.984838	0.007559	-0.798188	0.135960	0.586865
09397	0	8.197327	0.080028	5.946505	-0.003217	0.004118	0.314675	0.019044	-0.004437	0.004856	-0.292236	0.075684	-0.799561	0.081972	0.000797	0.059467	1.000000	0.000095	-0.000022	0.000024	0.576912	-0.107675	0.809678	0.173214	0.984855	0.007552	-0.798229	0.135890	0.586825
09398	0	8.202568	0.100993	5.902107	0.038246	0.018071	0.293024	0.015084	-0.002452	0.004745	-0.285156	0.069092	-0.806396	0.082025	0.001007	0.059022	1.000000	0.000075	-0.000012	0.000024	0.576884	-0.107606	0.809707	0.173096	0.984876	0.007562	-0.798275	0.135795	0.586785
09399	0	8.217873	0.083595	5.895375	0.048908	-0.001972	0.301337	0.018017	-0.001570	0.005298	-0.291992	0.073486	-0.801758	0.082178	0.000833	0.058954	1.000000	0.000090	-0.000008	0.000026	0.576864	-0.107531	0.809731	0.172908	0.984909	0.007612	-0.798330	0.135618	0.586752
09400	0	8.202814	0.102088	5.901747	0.037861	0.018686	0.293024	0.016465	-0.002355	0.006592	-0.289795	0.075684	-0.794922	0.082027	0.001019	0.059019	1.000000	0.000082	-0.000012	0.000033	0.576840	-0.107445	0.809760	0.172769	0.984933	0.007614	-0.798377	0.135509	0.586712
09401	0	8.240794	0.128737	5.917979	0.049765	0.043656	0.333512	0.017588	0.000207	0.003946	-0.290039	0.080078	-0.806641	0.082408	0.001284	0.059180	1.000000	0.000088	0.000001	0.000020	0.576733	-0.107319	0.809853	0.172613	0.984960	0.007598	-0.798488	0.135409	0.586584
09402	0	8.252101	0.080392	5.896846	0.064680	-0.008233	0.329905	0.017942	0.003171	0.006236	-0.294678	0.080078	-0.799805	0.082522	0.000801	0.058967	1.000000	0.000090	0.000016	0.000031	0.576752	-0.107243	0.809849	0.172464	0.984986	0.007612	-0.798507	0.135280	0.586588
09403	0	8.236707	0.099073	5.903677	0.052807	0.014674	0.321589	0.019579	0.004299	0.003368	-0.289795	0.073486	-0.797119	0.082368	0.000986	0.059035	1.000000	0.000098	0.000021	0.000017	0.576676	-0.107190	0.809911	0.172616	0.984961	0.007451	-0.798529	0.135506	0.586506
09404	0	8.270663	0.094757	5.905543	0.070154	0.006847	0.350153	0.013542	0.001849	0.005407	-0.287598	0.073486	-0.806396	0.082707	0.000946	0.059055	1.000000	0.000068	0.000009	0.000027	0.576682	-0.107120	0.809916	0.172508	0.984980	0.007444	-0.798548	0.135424	0.586499
09405	0	8.219878	0.097129	5.873983	0.066543	0.010541	0.290529	0.016830	0.005695	0.008248	-0.287598	0.075684	-0.802002	0.082200	0.000970	0.058738	1.000000	0.000084	0.000028	0.000041	0.576718	-0.107023	0.809903	0.172364	0.985005	0.007424	-0.798553	0.135317	0.586517
09406	0	8.233503	0.090515	5.926663	0.031376	0.009460	0.332412	0.018197	0.004201	0.001519	-0.294434	0.075439	-0.797363	0.082336	0.000900	0.059265	1.000000	0.000091	0.000021	0.000008	0.576736	-0.106994	0.809894	0.172242	0.985026	0.007475	-0.798567	0.135186	0.586529
09407	0	8.216734	0.088445	5.896892	0.044325	0.005686	0.301356	0.019932	0.007264	0.005655	-0.287598	0.073486	-0.804199	0.082169	0.000881	0.058966	1.000000	0.000100	0.000036	0.000028	0.576697	-0.106882	0.809936	0.172131	0.985046	0.007428	-0.798618	0.135131	0.586471
09408	0	8.180987	0.104746	5.954535	-0.019244	0.033130	0.306332	0.017427	0.004606	0.006453	-0.287598	0.073486	-0.804199	0.081811	0.001045	0.059544	1.000000	0.000087	0.000023	0.000032	0.576726	-0.106806	0.809926	0.171987	0.985071	0.007435	-0.798629	0.135009	0.586485
09409	0	8.164343	0.102299	5.924594	-0.004649	0.028441	0.275273	0.017854	0.002831	0.007804	-0.287842	0.077881	-0.802002	0.081644	0.001021	0.059245	1.000000	0.000089	0.000014	0.000039	0.576786	-0.106751	0.809890	0.171901	0.985086	0.007420	-0.798604	0.134941	0.586534
09410	0	8.164257	0.102835	5.924703	-0.004836	0.028920	0.275272	0.018965	0.000306	0.005791	-0.294189	0.071045	-0.804199	0.081643	0.001025	0.059247	1.000000	0.000095	0.000002	0.000029	0.576780	-0.106675	0.809905	0.171748	0.985113	0.007441	-0.798641	0.134808	0.586514
09411	0	8.198431	0.098533	5.926278	0.011834	0.021654	0.303841	0.018011	-0.001568	0.005295	-0.289795	0.075684	-0.799561	0.081984	0.000982	0.059264	1.000000	0.000090	-0.000008	0.000026	0.576698	-0.106591	0.809974	0.171662	0.985128	0.007418	-0.798719	0.134764	0.586419
09412	0	8.166971	0.114252	5.902352	0.014948	0.037149	0.264446	0.018524	-0.003001	0.005075	-0.291992	0.071045	-0.801758	0.081669	0.001139	0.059025	1.000000	0.000093	-0.000015	0.000025	0.576663	-0.106517	0.810008	0.171517	0.985153	0.007441	-0.798775	0.134639	0.586371
09413	0	8.198716	0.099591	5.925866	0.010529	0.022936	0.303839	0.015775	-0.001601	0.009953	-0.285156	0.071289	-0.799561	0.081987	0.000995	0.059259	1.000000	0.000079	-0.000008	0.000050	0.576577	-0.106358	0.810091	0.171342	0.985184	0.007394	-0.798875	0.134539	0.586258
09414	0	8.198862	0.100026	5.925657	0.010329	0.023422	0.303839	0.017142	-0.003100	0.003226	-0.287842	0.077881	-0.802002	0.081988	0.000997	0.059258	1.000000	0.000086	-0.000016	0.000016	0.576538	-0.106302	0.810126	0.171219	0.985205	0.007425	-0.798929	0.134428	0.586209
09415	0	8.235673	0.105768	5.905002	0.049227	0.022822	0.321591	0.019305	-0.001810	0.008711	-0.285156	0.071289	-0.804199	0.082356	0.001056	0.059051	1.000000	0.000097	-0.000009	0.000044	0.576568	-0.106219	0.810116	0.171158	0.985216	0.007363	-0.798921	0.134412	0.586224
09416	0	8.252130	0.109189	5.935183	0.034867	0.028529	0.352643	0.016984	0.001300	0.005731	-0.289795	0.071289	-0.801758	0.082522	0.001089	0.059351	1.000000	0.000085	0.000006	0.000029	0.576569	-0.106144	0.810125	0.171022	0.985240	0.007371	-0.798949	0.134299	0.586211
09417	0	8.220447	0.124772	5.911561	0.038467	0.043525	0.313245	0.019831	0.001841	0.007852	-0.292236	0.075684	-0.799561	0.082205	0.001245	0.059115	1.000000	0.000099	0.000009	0.000039	0.576620	-0.106072	0.810098	0.170822	0.985274	0.007420	-0.798955	0.134104	0.586248
09418	0	8.217719	0.115227	5.933906	0.017449	0.037299	0.324064	0.018891	0.005050	0.006718	-0.287598	0.073486	-0.797119	0.082179	0.001149	0.059337	1.000000	0.000094	0.000025	0.000034	0.576653	-0.105993	0.810085	0.170665	0.985301	0.007432	-0.798965	0.133968	0.586266
09419	0	8.211198	0.074645	5.941620	-0.000142	-0.000278	0.323001	0.016983	0.001301	0.005729	-0.291992	0.071045	-0.801758	0.082112	0.000744	0.059416	1.000000	0.000085	0.000007	0.000029	0.576589	-0.105878	0.810145	0.170568	0.985318	0.007376	-0.799032	0.133933	0.586183
09420	0	8.235096	0.108433	5.905759	0.047989	0.025572	0.321591	0.019403	0.003616	0.006498	-0.287598	0.075684	-0.799561	0.082352	0.001081	0.059056	1.000000	0.000097	0.000018	0.000032	0.576610	-0.105798	0.810141	0.170409	0.985346	0.007392	-0.799051	0.133793	0.586189
09421	0	8.183158	0.121834	5.932819	-0.001873	0.048213	0.295474	0.014050	0.000419	0.005179	-0.290039	0.075684	-0.804199	0.081832	0.001216	0.059328	1.000000	0.000070	0.000002	0.000026	0.576562	-0.105711	0.810186	0.170321	0.985361	0.007360	-0.799104	0.133748	0.586126
09422	0	8.210997	0.076385	5.941874	-0.001211	0.001577	0.323001	0.020071	-0.002219	0.003774	-0.289795	0.075684	-0.802002	0.082109	0.000759	0.059420	1.000000	0.000100	-0.000011	0.000019	0.576531	-0.105650	0.810216	0.170172	0.985387	0.007402	-0.799158	0.133609	0.586085
09423	0	8.202262	0.136260	5.940730	0.004330	0.062119	0.315692	0.017494	-0.000132	0.005508	-0.291992	0.071045	-0.799561	0.082023	0.001360	0.059407	1.000000	0.000087	-0.000001	0.000028	0.576495	-0.105600	0.810248	0.170210	0.985381	0.007320	-0.799176	0.133692	0.586041
09424	0	8.201081	0.115746	5.903903	0.029144	0.037172	0.293002	0.014988	-0.002788	0.006312	-0.289795	0.071289	-0.799561	0.082010	0.001156	0.059040	1.000000	0.000075	-0.000014	0.000032	0.576464	-0.105513	0.810282	0.170088	0.985402	0.007311	-0.799225	0.133604	0.585995
09425	0	8.237779	0.121166	5.883410	0.066256	0.035926	0.310776	0.014917	0.001955	0.007241	-0.292236	0.077881	-0.811279	0.082378	0.001210	0.058833	1.000000	0.000075	0.000010	0.000036	0.576401	-0.105372	0.810345	0.169846	0.985443	0.007328	-0.799321	0.133410	0.585908
09426	0	8.219991	0.129374	5.912096	0.034373	0.049945	0.313230	0.013451	0.001514	0.006967	-0.291992	0.071045	-0.799561	0.082200	0.001293	0.059120	1.000000	0.000067	0.000008	0.000035	0.576405	-0.105285	0.810353	0.169732	0.985463	0.007305	-0.799342	0.133332	0.585896
09427	0	8.235053	0.111644	5.905759	0.044465	0.030872	0.321592	0.013536	0.001854	0.005394	-0.285156	0.066895	-0.799316	0.082351	0.001115	0.059057	1.000000	0.000068	0.000009	0.000027	0.576351	-0.105237	0.810398	0.169755	0.985460	0.007241	-0.799376	0.133395	0.585835
09428	0	8.232408	0.101946	5.927999	0.023416	0.024689	0.332408	0.013536	0.001854	0.005394	-0.287842	0.077881	-0.799805	0.082325	0.001018	0.059279	1.000000	0.000068	0.000009	0.000027	0.576355	-0.105165	0.810405	0.169650	0.985478	0.007230	-0.799396	0.133318	0.585826
09429	0	8.253778	0.125376	5.914208	0.051292	0.043828	0.341813	0.013024	0.003288	0.005612	-0.287842	0.077881	-0.797363	0.082539	0.001252	0.059141	1.000000	0.000065	0.000016	0.000028	0.576415	-0.105107	0.810370	0.169570	0.985492	0.007206	-0.799370	0.133261	0.585875
09430	0	8.264918	0.076587	5.893450	0.066092	-0.008033	0.338325	0.013024	0.003289	0.005611	-0.291992	0.073486	-0.801758	0.082650	0.000764	0.058933	1.000000	0.000065	0.000016	0.000028	0.576430	-0.105035	0.810368	0.169468	0.985509	0.007190	-0.799380	0.133187	0.585877
09431	0	8.214181	0.111019	5.957271	-0.008723	0.040843	0.334846	0.010349	0.003425	0.000347	-0.285400	0.075684	-0.802002	0.082143	0.001107	0.059571	1.000000	0.000052	0.000017	0.000002	0.576388	-0.105010	0.810401	0.169559	0.985494	0.007101	-0.799392	0.133318	0.585832
09432	0	8.193572	0.077521	5.912978	0.009412	0.003942	0.291957	0.011745	0.008610	0.001548	-0.294434	0.073242	-0.799561	0.081938	0.000772	0.059126	1.000000	0.000059	0.000043	0.000008	0.576439	-0.104985	0.810368	0.169491	0.985506	0.007110	-0.799369	0.133252	0.585878
09433	0	8.214621	0.101009	5.899634	0.036363	0.023764	0.301362	0.010107	0.007490	0.004418	-0.289795	0.071289	-0.799561	0.082148	0.001009	0.058993	1.000000	0.000051	0.000037	0.000022	0.576448	-0.104931	0.810369	0.169515	0.985503	0.007026	-0.799358	0.133319	0.585878
09434	0	8.215530	0.122398	5.936793	0.011150	0.049777	0.324019	0.011217	0.004961	0.002410	-0.287598	0.071289	-0.801758	0.082157	0.001222	0.059366	1.000000	0.000056	0.000025	0.000012	0.576471	-0.104892	0.810357	0.169447	0.985514	0.007024	-0.799356	0.133263	0.585894
09435	0	8.196501	0.109839	5.928749	0.004141	0.038073	0.303798	0.012224	-0.002990	0.002621	-0.289795	0.073486	-0.797119	0.081964	0.001096	0.059289	1.000000	0.000061	-0.000015	0.000013	0.576425	-0.104833	0.810397	0.169317	0.985536	0.007057	-0.799416	0.133146	0.585838
09436	0	8.216899	0.112290	5.877879	0.056444	0.031738	0.290546	0.011626	-0.001894	0.004410	-0.289795	0.071045	-0.797119	0.082168	0.001121	0.058780	1.000000	0.000058	-0.000009	0.000022	0.576397	-0.104766	0.810426	0.169234	0.985551	0.007041	-0.799454	0.133093	0.585798
09437	0	8.218276	0.133575	5.914387	0.030397	0.057930	0.313200	0.008182	-0.001342	0.004079	-0.287598	0.075684	-0.799561	0.082182	0.001335	0.059144	1.000000	0.000041	-0.000007	0.000020	0.576312	-0.104652	0.810501	0.169117	0.985571	0.007005	-0.799540	0.133032	0.585695
09438	0	8.230906	0.105790	5.930017	0.020160	0.031568	0.332395	0.014046	0.000422	0.005174	-0.285400	0.077881	-0.797363	0.082309	0.001056	0.059300	1.000000	0.000070	0.000002	0.000026	0.576303	-0.104580	0.810517	0.169010	0.985589	0.006997	-0.799569	0.132953	0.585674
09439	0	8.233394	0.116112	5.907986	0.041488	0.040005	0.321573	0.007244	0.001866	0.002941	-0.289795	0.073486	-0.801758	0.082334	0.001160	0.059079	1.000000	0.000036	0.000009	0.000015	0.576331	-0.104577	0.810497	0.169220	0.985555	0.006834	-0.799504	0.133213	0.585702
09440	0	8.196437	0.111390	5.928808	0.002949	0.042138	0.303783	0.008813	0.007728	0.000996	-0.291992	0.071045	-0.797119	0.081967	0.001112	0.059285	1.000000	0.000044	0.000039	0.000005	0.576374	-0.104555	0.810470	0.169180	0.985561	0.006829	-0.799482	0.133179	0.585741
09441	0	8.216357	0.113752	5.878610	0.054344	0.035879	0.290543	0.006818	0.003639	0.001586	-0.292236	0.080078	-0.795166	0.082165	0.001136	0.058785	1.000000	0.000034	0.000018	0.000008	0.576317	-0.104486	0.810519	0.169101	0.985575	0.006814	-0.799539	0.133133	0.585673
09442	0	8.211011	0.094083	5.923165	0.012430	0.023087	0.312170	0.008370	0.004418	0.000288	-0.285156	0.069092	-0.801758	0.082111	0.000938	0.059230	1.000000	0.000042	0.000022	0.000001	0.576332	-0.104467	0.810511	0.169069	0.985581	0.006812	-0.799536	0.133107	0.585684
09443	0	8.213329	0.104473	5.901372	0.032902	0.030949	0.301354	0.006818	0.003639	0.001586	-0.287598	0.073486	-0.799561	0.082134	0.001043	0.059012	1.000000	0.000034	0.000018	0.000008	0.576319	-0.104437	0.810524	0.169138	0.985569	0.006727	-0.799530	0.133213	0.585667
09444	0	8.214432	0.125878	5.938240	0.007689	0.057010	0.323985	0.005950	0.002102	-0.000477	-0.290039	0.075684	-0.804199	0.082145	0.001257	0.059382	1.000000	0.000030	0.000011	-0.000002	0.576314	-0.104423	0.810530	0.169130	0.985571	0.006717	-0.799536	0.133214	0.585659
09445	0	8.211692	0.116177	5.960604	-0.013196	0.051418	0.334793	0.000615	0.003986	-0.002437	-0.282959	0.069092	-0.803955	0.082118	0.001161	0.059604	1.000000	0.000003	0.000020	-0.000012	0.576319	-0.104469	0.810520	0.169315	0.985540	0.006637	-0.799493	0.133408	0.585674
09446	0	8.195090	0.113421	5.930632	0.000776	0.046662	0.303763	0.007330	0.002205	0.001369	-0.289551	0.068848	-0.801758	0.081952	0.001133	0.059305	1.000000	0.000037	0.000011	0.000007	0.576318	-0.104437	0.810525	0.169286	0.985545	0.006619	-0.799500	0.133396	0.585667
09447	0	8.195099	0.113697	5.930613	0.001386	0.046011	0.303766	0.001110	-0.002530	-0.002006	-0.285400	0.077881	-0.804443	0.081950	0.001136	0.059307	1.000000	0.000006	-0.000013	-0.000010	0.576352	-0.104462	0.810497	0.169214	0.985557	0.006695	-0.799490	0.133289	0.585704
09448	0	8.212873	0.106009	5.901978	0.032838	0.032992	0.301348	0.003616	0.000124	-0.002814	-0.292236	0.077881	-0.806641	0.082129	0.001058	0.059020	1.000000	0.000018	0.000001	-0.000014	0.576328	-0.104468	0.810514	0.169238	0.985552	0.006690	-0.799503	0.133314	0.585681
09449	0	8.225484	0.078458	5.917648	0.023301	0.007919	0.320560	0.005594	-0.000869	-0.002757	-0.291992	0.073486	-0.804199	0.082255	0.000782	0.059177	1.000000	0.000028	-0.000004	-0.000014	0.576316	-0.104576	0.810509	0.169598	0.985492	0.006560	-0.799435	0.133680	0.585690
09450	0	8.193948	0.093889	5.893792	0.026481	0.023371	0.281130	0.003530	-0.000214	-0.001241	-0.287842	0.077881	-0.799805	0.081939	0.000937	0.058938	1.000000	0.000018	-0.000001	-0.000006	0.576292	-0.104565	0.810527	0.169614	0.985489	0.006540	-0.799449	0.133708	0.585665
09451	0	8.228028	0.089222	5.895536	0.043602	0.016423	0.309742	0.004484	0.001661	-0.000751	-0.292236	0.080078	-0.802002	0.082281	0.000891	0.058955	1.000000	0.000022	0.000008	-0.000004	0.576254	-0.104584	0.810551	0.169780	0.985461	0.006449	-0.799441	0.133899	0.585632
09452	0	8.229183	0.110665	5.932319	0.018422	0.042532	0.332359	0.005950	0.002102	-0.000477	-0.290039	0.075684	-0.804199	0.082292	0.001105	0.059322	1.000000	0.000030	0.000011	-0.000002	0.576250	-0.104569	0.810556	0.169773	0.985462	0.006437	-0.799446	0.133901	0.585626
09453	0	8.208842	0.076815	5.887722	0.036217	0.006879	0.289535	0.004398	0.001323	0.000821	-0.292236	0.075684	-0.799561	0.082089	0.000767	0.058877	1.000000	0.000022	0.000007	0.000004	0.576189	-0.104587	0.810597	0.170031	0.985419	0.006281	-0.799434	0.134208	0.585571
09454	0	8.210031	0.098095	5.924458	0.011044	0.033010	0.312145	0.004398	0.001323	0.000821	-0.282959	0.073486	-0.801758	0.082101	0.000980	0.059244	1.000000	0.000022	0.000007	0.000004	0.576181	-0.104557	0.810607	0.170030	0.985419	0.006248	-0.799441	0.134228	0.585557
09455	0	8.196171	0.105395	5.872111	0.046291	0.035154	0.270301	0.004128	-0.001310	-0.003030	-0.290039	0.080078	-0.797363	0.081961	0.001051	0.058722	1.000000	0.000021	-0.000007	-0.000015	0.576166	-0.104600	0.810612	0.170160	0.985397	0.006208	-0.799424	0.134357	0.585551
09456	0	8.206332	0.067757	5.909767	0.015152	0.002261	0.300353	0.005933	-0.002980	0.000171	-0.294434	0.077881	-0.804443	0.082062	0.000676	0.059099	1.000000	0.000030	-0.000015	0.000001	0.576122	-0.104572	0.810647	0.170151	0.985399	0.006189	-0.799457	0.134367	0.585503
09457	0	8.191358	0.086134	5.915926	0.003353	0.024672	0.291932	0.005933	-0.002980	0.000171	-0.289795	0.073486	-0.804199	0.081913	0.000860	0.059161	1.000000	0.000030	-0.000015	0.000001	0.575986	-0.104554	0.810746	0.170384	0.985359	0.006025	-0.799506	0.134667	0.585368
09458	0	8.210477	0.099438	5.923818	0.009829	0.037229	0.312131	0.005335	-0.001883	0.001960	-0.292236	0.075684	-0.804199	0.082104	0.000994	0.059239	1.000000	0.000027	-0.000009	0.000010	0.575954	-0.104509	0.810774	0.170370	0.985362	0.005987	-0.799532	0.134683	0.585328
09459	0	8.191650	0.086661	5.915514	0.002715	0.026058	0.291929	0.004553	-0.003083	-0.001675	-0.291992	0.071045	-0.801758	0.081916	0.000865	0.059156	1.000000	0.000023	-0.000015	-0.000008	0.575877	-0.104536	0.810826	0.170479	0.985343	0.005956	-0.799564	0.134799	0.585257
09460	0	8.189104	0.076936	5.937622	-0.018357	0.020039	0.302744	0.003886	0.002758	0.001037	-0.287598	0.073486	-0.801758	0.081892	0.000769	0.059375	1.000000	0.000019	0.000014	0.000005	0.575880	-0.104506	0.810827	0.170482	0.985343	0.005917	-0.799561	0.134824	0.585255
09461	0	8.204237	0.059235	5.931236	-0.007981	0.000012	0.311171	0.007485	-0.002201	-0.001128	-0.287598	0.073486	-0.799561	0.082042	0.000590	0.059313	1.000000	0.000037	-0.000011	-0.000006	0.575829	-0.104495	0.810865	0.170423	0.985353	0.005957	-0.799611	0.134759	0.585203
09462	0	8.206858	0.069587	5.909015	0.012678	0.007202	0.300354	0.006289	-0.000007	0.002450	-0.289795	0.071045	-0.797119	0.082069	0.000695	0.059090	1.000000	0.000031	-0.000000	0.000012	0.575812	-0.104448	0.810883	0.170398	0.985357	0.005920	-0.799628	0.134764	0.585179
09463	0	8.223473	0.072817	5.938960	-0.001904	0.012843	0.331369	0.006784	-0.006524	0.002883	-0.290039	0.075684	-0.804199	0.082233	0.000727	0.059392	1.000000	0.000034	-0.000033	0.000014	0.575738	-0.104362	0.810946	0.170280	0.985378	0.005917	-0.799706	0.134681	0.585091
09464	0	8.204834	0.059967	5.930403	-0.008791	0.001453	0.311170	0.006358	-0.004752	0.001527	-0.289795	0.075684	-0.797363	0.082047	0.000598	0.059306	1.000000	0.000032	-0.000024	0.000008	0.575682	-0.104317	0.810992	0.170261	0.985381	0.005889	-0.799751	0.134690	0.585027
09465	0	8.224103	0.073211	5.938083	-0.002419	0.014556	0.331367	0.006272	-0.005089	0.003099	-0.294434	0.075684	-0.804199	0.082240	0.000732	0.059383	1.000000	0.000031	-0.000025	0.000015	0.575606	-0.104279	0.811051	0.170346	0.985367	0.005796	-0.799788	0.134824	0.584946
09466	0	8.211681	0.101517	5.922113	0.007477	0.041968	0.312115	0.008352	-0.000663	0.000933	-0.287598	0.071289	-0.801758	0.082117	0.001013	0.059221	1.000000	0.000042	-0.000003	0.000005	0.575581	-0.104245	0.811073	0.170315	0.985373	0.005783	-0.799812	0.134809	0.584916
09467	0	8.192821	0.088733	5.913861	0.000323	0.030483	0.291917	0.007226	-0.003213	0.003588	-0.299072	0.077637	-0.802002	0.081927	0.000887	0.059140	1.000000	0.000036	-0.000016	0.000018	0.575517	-0.104200	0.811124	0.170295	0.985376	0.005756	-0.799863	0.134818	0.584845
09468	0	8.206768	0.082068	5.966099	-0.034947	0.029867	0.333741	0.007841	0.000772	0.001149	-0.289795	0.073486	-0.799561	0.082068	0.000819	0.059661	1.000000	0.000039	0.000004	0.000006	0.575504	-0.104166	0.811138	0.170266	0.985381	0.005739	-0.799878	0.134807	0.584827
09469	0	8.211911	0.102427	5.921778	0.005181	0.044276	0.312106	0.010243	-0.001993	0.002562	-0.289795	0.071289	-0.799561	0.082119	0.001022	0.059219	1.000000	0.000051	-0.000010	0.000013	0.575356	-0.104075	0.811255	0.170229	0.985388	0.005686	-0.799993	0.134828	0.584665
09470	0	8.195646	0.099736	5.891336	0.019160	0.039477	0.281096	0.012135	-0.003324	0.004191	-0.298828	0.073242	-0.801758	0.081955	0.000995	0.058915	1.000000	0.000061	-0.000017	0.000021	0.575314	-0.104005	0.811293	0.170148	0.985402	0.005668	-0.800039	0.134779	0.584612
09471	0	8.193366	0.090156	5.913084	-0.003385	0.033245	0.291907	0.006955	-0.005849	-0.000261	-0.294434	0.073486	-0.806396	0.081932	0.000899	0.059133	1.000000	0.000035	-0.000029	-0.000001	0.575143	-0.103912	0.811426	0.169992	0.985429	0.005704	-0.800196	0.134655	0.584427
09472	0	8.210161	0.093501	5.942785	-0.017813	0.039235	0.322910	0.008162	-0.006419	0.004728	-0.294189	0.071045	-0.797119	0.082100	0.000935	0.059431	1.000000	0.000041	-0.000032	0.000024	0.575077	-0.103833	0.811483	0.169940	0.985438	0.005660	-0.800254	0.134649	0.584348
09473	0	8.209161	0.072481	5.905780	0.005685	0.013935	0.300353	0.007225	-0.003213	0.003588	-0.287598	0.075684	-0.802002	0.082091	0.000724	0.059059	1.000000	0.000036	-0.000016	0.000018	0.574947	-0.103727	0.811589	0.169791	0.985464	0.005666	-0.800379	0.134542	0.584202
09474	0	8.228335	0.085674	5.913583	0.012121	0.026516	0.320548	0.007225	-0.003213	0.003588	-0.285400	0.075684	-0.804199	0.082282	0.000856	0.059137	1.000000	0.000036	-0.000016	0.000018	0.574904	-0.103664	0.811627	0.169753	0.985471	0.005626	-0.800418	0.134542	0.584149
09475	0	8.231022	0.095789	5.891252	0.034246	0.033925	0.309735	0.008180	-0.001337	0.004076	-0.291992	0.073242	-0.790283	0.082310	0.000957	0.058913	1.000000	0.000041	-0.000007	0.000020	0.574973	-0.103710	0.811573	0.169931	0.985440	0.005539	-0.800331	0.134727	0.584225
09476	0	8.224715	0.054881	5.898809	0.017221	-0.004274	0.308803	0.006800	-0.001441	0.002231	-0.298828	0.071045	-0.804199	0.082247	0.000548	0.058989	1.000000	0.000034	-0.000007	0.000011	0.574943	-0.103663	0.811600	0.169904	0.985445	0.005506	-0.800358	0.134729	0.584187
09477	0	8.228669	0.086117	5.913113	0.010942	0.028393	0.320544	0.005248	-0.002219	0.003531	-0.289795	0.075684	-0.802002	0.082286	0.000861	0.059132	1.000000	0.000026	-0.000011	0.000018	0.574772	-0.103489	0.811743	0.169670	0.985486	0.005501	-0.800531	0.134567	0.583988
09478	0	8.209793	0.073140	5.904894	0.004037	0.016997	0.300350	0.008180	-0.001337	0.004076	-0.292236	0.075684	-0.797363	0.082098	0.000731	0.059050	1.000000	0.000041	-0.000007	0.000020	0.574745	-0.103423	0.811771	0.169622	0.985494	0.005461	-0.800560	0.134556	0.583950
09479	0	8.229002	0.086424	5.912645	0.010306	0.030064	0.320540	0.006868	-0.006186	0.001311	-0.298828	0.075439	-0.799561	0.082288	0.000863	0.059129	1.000000	0.000034	-0.000031	0.000007	0.574650	-0.103396	0.811841	0.169698	0.985481	0.005393	-0.800612	0.134669	0.583853
09480	0	8.260814	0.071651	5.936128	0.006606	0.015860	0.359997	0.006714	-0.001778	0.003803	-0.292236	0.077881	-0.799805	0.082608	0.000716	0.059362	1.000000	0.000034	-0.000009	0.000019	0.574619	-0.103332	0.811871	0.169664	0.985488	0.005347	-0.800642	0.134673	0.583812
09481	0	8.226811	0.076667	5.934287	-0.012463	0.025545	0.331338	0.006628	-0.002114	0.005375	-0.292236	0.075684	-0.802002	0.082267	0.000767	0.059344	1.000000	0.000033	-0.000011	0.000027	0.574467	-0.103223	0.811993	0.169688	0.985484	0.005227	-0.800746	0.134783	0.583644
09482	0	8.206613	0.042531	5.889507	0.005583	-0.011491	0.288621	0.009645	-0.000896	0.004347	-0.290039	0.077881	-0.797363	0.082066	0.000424	0.058895	1.000000	0.000048	-0.000004	0.000022	0.574443	-0.103155	0.812019	0.169628	0.985495	0.005193	-0.800776	0.134757	0.583608
09483	0	8.194063	0.070643	5.873697	0.015440	0.016574	0.269349	0.007582	-0.000238	0.005863	-0.294434	0.073242	-0.799561	0.081941	0.000707	0.058737	1.000000	0.000038	-0.000001	0.000029	0.574408	-0.103106	0.812050	0.169725	0.985478	0.005070	-0.800780	0.134913	0.583566
09484	0	8.210569	0.073888	5.903806	0.000978	0.022617	0.300339	0.011622	-0.001889	0.004403	-0.296631	0.075439	-0.804199	0.082105	0.000737	0.059039	1.000000	0.000058	-0.000009	0.000022	0.574376	-0.103035	0.812081	0.169649	0.985492	0.005046	-0.800819	0.134870	0.583523
09485	0	8.195517	0.092067	5.910075	-0.011194	0.043589	0.291862	0.006116	-0.000679	0.005590	-0.289795	0.073486	-0.799561	0.081955	0.000921	0.059101	1.000000	0.000031	-0.000003	0.000028	0.574262	-0.102929	0.812175	0.169584	0.985503	0.004988	-0.800914	0.134868	0.583392
09486	0	8.251174	0.110175	5.897662	0.033514	0.054545	0.329912	0.009220	0.000875	0.002989	-0.289795	0.075684	-0.799561	0.082512	0.001100	0.058976	1.000000	0.000046	0.000004	0.000015	0.574250	-0.102876	0.812191	0.169535	0.985512	0.004962	-0.800934	0.134846	0.583371
09487	0	8.215769	0.094128	5.859367	0.041130	0.037748	0.278734	0.009472	-0.001568	0.007491	-0.289795	0.075684	-0.802002	0.082157	0.000942	0.058594	1.000000	0.000047	-0.000008	0.000037	0.574244	-0.102806	0.812203	0.169516	0.985515	0.004892	-0.800942	0.134872	0.583354
09488	0	8.248764	0.100252	5.919614	0.012438	0.049250	0.340706	0.008006	-0.002009	0.007219	-0.292236	0.075684	-0.799561	0.082487	0.001003	0.059197	1.000000	0.000040	-0.000010	0.000036	0.574216	-0.102707	0.812236	0.169453	0.985527	0.004824	-0.800976	0.134865	0.583309
09489	0	8.229791	0.087159	5.911535	0.005655	0.038153	0.320516	0.007157	0.001533	0.004504	-0.292236	0.075684	-0.799561	0.082298	0.000871	0.059115	1.000000	0.000036	0.000008	0.000023	0.574210	-0.102681	0.812243	0.169521	0.985515	0.004743	-0.800965	0.134969	0.583300
09490	0	8.229813	0.087160	5.911505	0.005406	0.038771	0.320514	0.006626	-0.002113	0.005374	-0.294434	0.077881	-0.804443	0.082297	0.000872	0.059116	1.000000	0.000033	-0.000011	0.000027	0.574178	-0.102600	0.812276	0.169480	0.985523	0.004682	-0.800997	0.134976	0.583254
09491	0	8.247655	0.078850	5.882753	0.036423	0.026281	0.318196	0.003609	-0.003331	0.006403	-0.294434	0.075439	-0.799561	0.082476	0.000790	0.058829	1.000000	0.000018	-0.000017	0.000032	0.574094	-0.102542	0.812343	0.169595	0.985503	0.004545	-0.801033	0.135160	0.583163
09492	0	8.246563	0.089972	5.941282	-0.009669	0.046042	0.351491	0.009558	-0.001232	0.005918	-0.291992	0.073242	-0.799561	0.082465	0.000899	0.059413	1.000000	0.000048	-0.000006	0.000030	0.574070	-0.102457	0.812371	0.169527	0.985515	0.004497	-0.801064	0.135138	0.583124
09493	0	8.232751	0.096915	5.888818	0.024568	0.047761	0.309707	0.008178	-0.001337	0.004073	-0.289795	0.073486	-0.797119	0.082327	0.000968	0.058889	1.000000	0.000041	-0.000007	0.000020	0.573994	-0.102373	0.812435	0.169453	0.985528	0.004464	-0.801135	0.135107	0.583034
09494	0	8.211265	0.074200	5.902834	-0.003251	0.029830	0.300320	0.008350	-0.000665	0.000928	-0.291992	0.073486	-0.801758	0.082112	0.000740	0.059029	1.000000	0.000042	-0.000003	0.000005	0.573965	-0.102338	0.812460	0.169423	0.985533	0.004449	-0.801162	0.135096	0.583000
09495	0	8.264441	0.082517	5.912467	0.020574	0.033969	0.349176	0.008178	-0.001336	0.004073	-0.289795	0.075684	-0.802002	0.082644	0.000824	0.059125	1.000000	0.000041	-0.000007	0.000020	0.573941	-0.102277	0.812485	0.169349	0.985546	0.004434	-0.801195	0.135049	0.582966
09496	0	8.213906	0.084610	5.880548	0.017158	0.037335	0.289519	0.007754	0.000434	0.002715	-0.296631	0.073242	-0.804199	0.082139	0.000845	0.058805	1.000000	0.000039	0.000002	0.000014	0.573924	-0.102226	0.812503	0.169315	0.985552	0.004401	-0.801214	0.135043	0.582940
09497	0	8.213932	0.084680	5.880511	0.016687	0.037871	0.289518	0.003270	-0.001224	0.003473	-0.294434	0.077881	-0.811279	0.082139	0.000847	0.058806	1.000000	0.000016	-0.000006	0.000017	0.573873	-0.102195	0.812543	0.169350	0.985546	0.004347	-0.801243	0.135109	0.582885
09498	0	8.214013	0.084742	5.880397	0.016433	0.038491	0.289516	0.006798	-0.001442	0.002229	-0.291992	0.071045	-0.799561	0.082140	0.000846	0.058805	1.000000	0.000034	-0.000007	0.000011	0.573840	-0.102146	0.812572	0.169326	0.985551	0.004312	-0.801272	0.135115	0.582845
09499	0	8.211548	0.075026	5.902429	-0.004691	0.032402	0.300312	0.006798	-0.001442	0.002229	-0.292236	0.077881	-0.799805	0.082115	0.000749	0.059025	1.000000	0.000034	-0.000007	0.000011	0.573802	-0.102153	0.812598	0.169373	0.985543	0.004294	-0.801289	0.135169	0.582808
09500	0	8.252184	0.111288	5.896228	0.029294	0.063583	0.329873	0.006798	-0.001442	0.002229	-0.294434	0.075439	-0.799561	0.082521	0.001112	0.058963	1.000000	0.000034	-0.000007	0.000011	0.573769	-0.102104	0.812627	0.169349	0.985547	0.004259	-0.801317	0.135174	0.582768
09501	0	8.216717	0.095372	5.858017	0.036161	0.047204	0.278713	0.007329	0.002204	0.001357	-0.292236	0.080078	-0.802002	0.082168	0.000952	0.058579	1.000000	0.000037	0.000011	0.000007	0.573719	-0.102081	0.812666	0.169416	0.985536	0.004193	-0.801339	0.135273	0.582715
09502	0	8.248136	0.080613	5.882055	0.032381	0.033089	0.318190	0.005267	0.002863	0.002873	-0.290039	0.077881	-0.809082	0.082482	0.000806	0.058819	1.000000	0.000026	0.000014	0.000014	0.573722	-0.102032	0.812670	0.169401	0.985539	0.004144	-0.801341	0.135289	0.582709
09503	0	8.264328	0.084027	5.912602	0.018742	0.039947	0.349158	0.006480	0.005744	-0.001359	-0.287842	0.082275	-0.802246	0.082645	0.000838	0.059124	1.000000	0.000032	0.000029	-0.000007	0.573773	-0.102160	0.812618	0.169731	0.985482	0.004049	-0.801234	0.135603	0.582783
09504	0	8.262790	0.063376	5.876339	0.043417	0.014850	0.326690	0.008012	0.001440	-0.002003	-0.292236	0.077881	-0.795166	0.082628	0.000631	0.058763	1.000000	0.000040	0.000007	-0.000010	0.573756	-0.102157	0.812630	0.169722	0.985484	0.004055	-0.801248	0.135595	0.582766
09505	0	8.247523	0.081950	5.882895	0.032972	0.036828	0.318175	0.005439	0.003534	-0.000272	-0.291992	0.073486	-0.801758	0.082476	0.000818	0.058828	1.000000	0.000027	0.000018	-0.000001	0.573770	-0.102215	0.812613	0.170011	0.985434	0.003913	-0.801177	0.135908	0.582790
09506	0	8.267611	0.083976	5.832417	0.085229	0.030246	0.305087	0.004397	0.001323	0.000814	-0.291992	0.073486	-0.806396	0.082676	0.000839	0.058324	1.000000	0.000022	0.000007	0.000004	0.573757	-0.102184	0.812626	0.170015	0.985434	0.003874	-0.801185	0.135936	0.582772
09507	0	8.262398	0.064387	5.876879	0.043344	0.017352	0.326686	0.007329	0.002205	0.001357	-0.296631	0.073242	-0.797119	0.082625	0.000642	0.058768	1.000000	0.000037	0.000011	0.000007	0.573765	-0.102199	0.812619	0.170010	0.985435	0.003895	-0.801181	0.135918	0.582783
09508	0	8.228070	0.069720	5.875486	0.025724	0.026199	0.297999	0.004928	0.004969	-0.000058	-0.287598	0.073486	-0.804199	0.082282	0.000696	0.058753	1.000000	0.000025	0.000025	-0.000000	0.573780	-0.102181	0.812610	0.170015	0.985434	0.003866	-0.801169	0.135937	0.582794
09509	0	8.227717	0.069868	5.875978	0.025286	0.026401	0.298000	0.002355	0.007063	0.001672	-0.292236	0.077881	-0.795166	0.082279	0.000699	0.058757	1.000000	0.000012	0.000035	0.000008	0.573805	-0.102151	0.812596	0.169974	0.985441	0.003854	-0.801159	0.135908	0.582814
09510	0	8.242475	0.052080	5.870135	0.035726	0.006804	0.306515	0.011301	0.005297	0.000813	-0.289795	0.073486	-0.797119	0.082426	0.000518	0.058699	1.000000	0.000057	0.000026	0.000004	0.573825	-0.102125	0.812586	0.169923	0.985450	0.003856	-0.801156	0.135864	0.582829
09511	0	8.209357	0.078782	5.905427	-0.007040	0.041588	0.300277	0.007773	0.005516	0.002057	-0.289795	0.075684	-0.799561	0.082095	0.000786	0.059052	1.000000	0.000039	0.000028	0.000010	0.573829	-0.102068	0.812590	0.169887	0.985456	0.003812	-0.801161	0.135861	0.582824
09512	0	8.210394	0.067852	5.847007	0.038537	0.022965	0.267028	0.010770	0.001652	0.001685	-0.290039	0.075684	-0.806641	0.082104	0.000676	0.058469	1.000000	0.000054	0.000008	0.000008	0.573821	-0.102029	0.812601	0.169835	0.985465	0.003804	-0.801178	0.135826	0.582808
09513	0	8.244483	0.063276	5.848737	0.056361	0.015318	0.295716	0.008349	-0.000665	0.000928	-0.291992	0.073242	-0.797119	0.082445	0.000631	0.058488	1.000000	0.000042	-0.000003	0.000005	0.573835	-0.102080	0.812584	0.169947	0.985446	0.003781	-0.801144	0.135926	0.582831
09514	0	8.192735	0.076830	5.875472	0.007159	0.037900	0.269301	0.008263	-0.001000	0.002501	-0.294434	0.073242	-0.797119	0.081927	0.000767	0.058755	1.000000	0.000041	-0.000005	0.000013	0.573807	-0.102029	0.812611	0.169911	0.985452	0.003751	-0.801172	0.135919	0.582795
09515	0	8.245961	0.085100	5.885040	0.030118	0.042037	0.318164	0.008686	-0.002769	0.003859	-0.292236	0.077881	-0.797363	0.082459	0.000850	0.058852	1.000000	0.000043	-0.000014	0.000019	0.573715	-0.101899	0.812692	0.169711	0.985487	0.003758	-0.801280	0.135766	0.582682
09516	0	8.261246	0.067200	5.878467	0.040550	0.022443	0.326688	0.008686	-0.002769	0.003859	-0.292236	0.077881	-0.804443	0.082612	0.000671	0.058786	1.000000	0.000043	-0.000014	0.000019	0.573675	-0.101832	0.812729	0.169663	0.985495	0.003720	-0.801319	0.135756	0.582631
09517	0	8.227337	0.072448	5.876479	0.022950	0.031834	0.297990	0.009197	-0.004204	0.003645	-0.296631	0.075439	-0.804199	0.082272	0.000723	0.058767	1.000000	0.000046	-0.000021	0.000018	0.573606	-0.101815	0.812779	0.169776	0.985476	0.003631	-0.801344	0.135908	0.582561
09518	0	8.246605	0.085873	5.884126	0.029382	0.044502	0.318155	0.011259	-0.004864	0.002129	-0.289795	0.073486	-0.799561	0.082465	0.000856	0.058843	1.000000	0.000056	-0.000024	0.000011	0.573546	-0.101762	0.812828	0.169718	0.985486	0.003621	-0.801399	0.135875	0.582492
09519	0	8.240454	0.045166	5.891522	0.011942	0.006178	0.317316	0.013931	-0.004984	0.007389	-0.291992	0.068848	-0.797119	0.082403	0.000451	0.058917	1.000000	0.000070	-0.000025	0.000037	0.573472	-0.101673	0.812891	0.169606	0.985505	0.003610	-0.801476	0.135801	0.582404
09520	0	8.259700	0.058483	5.899200	0.018372	0.018849	0.337482	0.013507	-0.003215	0.006030	-0.292236	0.077881	-0.799805	0.082596	0.000583	0.058993	1.000000	0.000068	-0.000016	0.000030	0.573432	-0.101584	0.812931	0.169508	0.985522	0.003581	-0.801525	0.135745	0.582349
09521	0	8.243389	0.055465	5.868820	0.032065	0.013556	0.306521	0.010934	-0.001119	0.007759	-0.287598	0.071289	-0.797119	0.082434	0.000555	0.058689	1.000000	0.000055	-0.000006	0.000039	0.573397	-0.101461	0.812971	0.169334	0.985552	0.003567	-0.801587	0.135619	0.582293
09522	0	8.259909	0.058795	5.898905	0.017575	0.019746	0.337482	0.014462	-0.001339	0.006513	-0.294434	0.075684	-0.804199	0.082599	0.000586	0.058990	1.000000	0.000072	-0.000007	0.000033	0.573372	-0.101370	0.813000	0.169226	0.985571	0.003540	-0.801628	0.135551	0.582253
09523	0	8.191667	0.069214	5.895534	-0.017152	0.036335	0.280078	0.013528	0.001865	0.005367	-0.289795	0.073486	-0.806396	0.081917	0.000690	0.058955	1.000000	0.000068	0.000009	0.000027	0.573391	-0.101321	0.812992	0.169115	0.985590	0.003557	-0.801637	0.135450	0.582264
09524	0	8.228387	0.074382	5.874985	0.020868	0.035252	0.297983	0.013505	-0.003215	0.006029	-0.296875	0.077637	-0.797363	0.082283	0.000742	0.058751	1.000000	0.000068	-0.000016	0.000030	0.573351	-0.101232	0.813032	0.169017	0.985607	0.003528	-0.801687	0.135393	0.582209
09525	0	8.197006	0.089446	5.850871	0.024013	0.050621	0.258483	0.012822	-0.002446	0.009387	-0.294434	0.075684	-0.802002	0.081969	0.000895	0.058510	1.000000	0.000064	-0.000012	0.000047	0.573302	-0.101141	0.813078	0.168966	0.985616	0.003466	-0.801733	0.135396	0.582145
09526	0	8.213707	0.092782	5.880703	0.009526	0.056818	0.289438	0.015904	-0.005978	0.007444	-0.298828	0.073242	-0.801758	0.082135	0.000926	0.058810	1.000000	0.000080	-0.000030	0.000037	0.573242	-0.101035	0.813133	0.168841	0.985637	0.003440	-0.801802	0.135318	0.582067
09527	0	8.212679	0.071781	5.843751	0.033146	0.031587	0.267024	0.015394	-0.004542	0.007657	-0.292480	0.082275	-0.802246	0.082125	0.000716	0.058439	1.000000	0.000077	-0.000023	0.000038	0.573114	-0.100906	0.813239	0.168670	0.985667	0.003433	-0.801929	0.135201	0.581919
09528	0	8.245879	0.078492	5.903701	0.004404	0.043355	0.328933	0.017369	-0.005536	0.007713	-0.301025	0.071045	-0.799561	0.082457	0.000783	0.059039	1.000000	0.000087	-0.000028	0.000039	0.573058	-0.100797	0.813293	0.168532	0.985690	0.003414	-0.801999	0.135109	0.581845
09529	0	8.246128	0.078834	5.903349	0.003148	0.044431	0.328929	0.016349	-0.002665	0.008139	-0.290039	0.077881	-0.797363	0.082460	0.000787	0.059035	1.000000	0.000082	-0.000013	0.000041	0.572939	-0.100680	0.813391	0.168445	0.985705	0.003359	-0.802102	0.135087	0.581708
09530	0	8.243691	0.069279	5.925359	-0.018038	0.038608	0.339717	0.014460	-0.001338	0.006509	-0.298828	0.073242	-0.801758	0.082436	0.000691	0.059254	1.000000	0.000072	-0.000007	0.000033	0.572914	-0.100589	0.813420	0.168337	0.985724	0.003332	-0.802143	0.135020	0.581667
09531	0	8.217320	0.104294	5.857019	0.026637	0.066995	0.278631	0.017391	-0.000456	0.007048	-0.292236	0.077881	-0.797363	0.082173	0.001041	0.058570	1.000000	0.000087	-0.000002	0.000035	0.572853	-0.100494	0.813474	0.168225	0.985743	0.003310	-0.802209	0.134951	0.581591
09532	0	8.266598	0.081418	5.852301	0.054367	0.039215	0.315897	0.014373	-0.001670	0.008081	-0.287598	0.075684	-0.802002	0.082665	0.000813	0.058524	1.000000	0.000072	-0.000008	0.000040	0.572827	-0.100387	0.813506	0.168109	0.985763	0.003270	-0.802252	0.134885	0.581548
09533	0	8.246397	0.079933	5.902959	0.002339	0.047439	0.328916	0.014733	0.001309	0.010348	-0.294434	0.073242	-0.797119	0.082464	0.000799	0.059029	1.000000	0.000074	0.000007	0.000052	0.572871	-0.100338	0.813481	0.168148	0.985757	0.003174	-0.802212	0.134967	0.581583
09534	0	8.248934	0.090113	5.880798	0.023007	0.054541	0.318123	0.016097	-0.000232	0.003631	-0.296631	0.075439	-0.799561	0.082489	0.000898	0.058808	1.000000	0.000080	-0.000001	0.000018	0.572850	-0.100277	0.813503	0.168044	0.985774	0.003180	-0.802250	0.134883	0.581552
09535	0	8.212158	0.085813	5.901434	-0.016424	0.056891	0.300191	0.015862	0.003851	0.007683	-0.294434	0.075684	-0.802002	0.082123	0.000857	0.059013	1.000000	0.000079	0.000019	0.000038	0.572802	-0.100142	0.813554	0.167847	0.985808	0.003169	-0.802325	0.134738	0.581481
09536	0	8.242204	0.049904	5.889035	0.004615	0.017075	0.317309	0.016880	0.000980	0.007258	-0.292236	0.077881	-0.797363	0.082422	0.000497	0.058890	1.000000	0.000084	0.000005	0.000036	0.572796	-0.100047	0.813570	0.167716	0.985830	0.003149	-0.802357	0.134645	0.581459
09537	0	8.227115	0.068424	5.895319	-0.006408	0.038338	0.308744	0.015923	-0.000896	0.006776	-0.296875	0.077637	-0.795166	0.082271	0.000682	0.058954	1.000000	0.000080	-0.000004	0.000034	0.572753	-0.099989	0.813607	0.167709	0.985832	0.003092	-0.802389	0.134678	0.581407
09538	0	8.233574	0.109815	5.887439	0.010291	0.077714	0.309546	0.016370	0.002416	0.007469	-0.289795	0.073486	-0.799561	0.082336	0.001096	0.058873	1.000000	0.000082	0.000012	0.000037	0.572759	-0.099893	0.813614	0.167581	0.985854	0.003068	-0.802411	0.134589	0.581397
09539	0	8.211832	0.087447	5.901863	-0.017921	0.060063	0.300170	0.015164	0.002971	0.002481	-0.292236	0.077881	-0.795166	0.082119	0.000871	0.059017	1.000000	0.000076	0.000015	0.000012	0.572731	-0.099845	0.813640	0.167515	0.985865	0.003064	-0.802445	0.134542	0.581361
09540	0	8.199284	0.115917	5.885974	-0.007896	0.087390	0.280810	0.011612	-0.001886	0.004395	-0.289795	0.075684	-0.802002	0.081992	0.001158	0.058861	1.000000	0.000058	-0.000009	0.000022	0.572697	-0.099774	0.813673	0.167443	0.985877	0.003036	-0.802484	0.134505	0.581315
09541	0	8.211826	0.088127	5.901861	-0.018032	0.061705	0.300160	0.014731	0.001314	0.010344	-0.292236	0.075684	-0.802002	0.082119	0.000881	0.059018	1.000000	0.000074	0.000007	0.000052	0.572717	-0.099707	0.813667	0.167460	0.985874	0.002939	-0.802467	0.134573	0.581324
09542	0	8.232091	0.089881	5.851117	0.034212	0.054997	0.287153	0.015052	-0.002440	0.004721	-0.298828	0.071045	-0.797119	0.082320	0.000896	0.058512	1.000000	0.000075	-0.000012	0.000024	0.572679	-0.099632	0.813703	0.167359	0.985892	0.002929	-0.802515	0.134503	0.581274
09543	0	8.214620	0.098571	5.879333	0.001621	0.069184	0.289366	0.012034	-0.003652	0.005755	-0.289795	0.073486	-0.801758	0.082145	0.000985	0.058795	1.000000	0.000060	-0.000018	0.000029	0.572581	-0.099517	0.813786	0.167191	0.985920	0.002931	-0.802620	0.134379	0.581157
09544	0	8.195912	0.085762	5.870915	-0.005323	0.057783	0.269208	0.011586	-0.006964	0.005062	-0.298828	0.073242	-0.799561	0.081957	0.000856	0.058712	1.000000	0.000058	-0.000035	0.000025	0.572507	-0.099432	0.813848	0.167115	0.985933	0.002898	-0.802688	0.134347	0.581070
09545	0	8.230446	0.080908	5.872014	0.011425	0.049927	0.297936	0.010120	-0.007405	0.004793	-0.296631	0.075439	-0.802002	0.082302	0.000808	0.058723	1.000000	0.000051	-0.000037	0.000024	0.572409	-0.099355	0.813927	0.167018	0.985950	0.002896	-0.802778	0.134283	0.580960
09546	0	8.230956	0.081187	5.871295	0.011157	0.050578	0.297933	0.012603	-0.009836	0.004639	-0.294434	0.075684	-0.802002	0.082307	0.000810	0.058717	1.000000	0.000063	-0.000049	0.000023	0.572311	-0.099271	0.814006	0.166936	0.985963	0.002872	-0.802865	0.134243	0.580850
09547	0	8.282109	0.079710	5.902340	0.013594	0.048790	0.357600	0.012603	-0.009836	0.004638	-0.296631	0.073242	-0.797119	0.082818	0.000795	0.059028	1.000000	0.000063	-0.000049	0.000023	0.572178	-0.099219	0.814106	0.166926	0.985965	0.002843	-0.802962	0.134269	0.580710
09548	0	8.251111	0.094716	5.877670	0.016953	0.064050	0.318079	0.008481	-0.008506	0.007669	-0.289795	0.073486	-0.794922	0.082509	0.000948	0.058780	1.000000	0.000042	-0.000043	0.000038	0.572096	-0.099106	0.814177	0.166861	0.985977	0.002771	-0.803034	0.134269	0.580610
09549	0	8.269126	0.086673	5.848654	0.047948	0.050653	0.315878	0.011422	-0.004206	-0.001020	-0.298828	0.073242	-0.797119	0.082690	0.000863	0.058488	1.000000	0.000057	-0.000021	-0.000005	0.572017	-0.099063	0.814238	0.166750	0.985995	0.002815	-0.803113	0.134164	0.580525
09550	0	8.251737	0.095524	5.876779	0.016107	0.065111	0.318073	0.009189	-0.004202	0.003642	-0.298584	0.068848	-0.794678	0.082516	0.000954	0.058770	1.000000	0.000046	-0.000021	0.000018	0.571963	-0.098996	0.814284	0.166702	0.986003	0.002780	-0.803162	0.134153	0.580460
09551	0	8.251958	0.095708	5.876466	0.014129	0.065220	0.318076	0.007215	-0.003206	0.003585	-0.296631	0.075439	-0.794922	0.082519	0.000956	0.058766	1.000000	0.000036	-0.000016	0.000018	0.571807	-0.098818	0.814415	0.166398	0.986055	0.002815	-0.803336	0.133907	0.580276
09552	0	8.239627	0.123851	5.860256	0.024160	0.092529	0.298704	0.007301	-0.002876	0.002012	-0.289795	0.075684	-0.797363	0.082395	0.001237	0.058604	1.000000	0.000037	-0.000014	0.000010	0.571760	-0.098769	0.814454	0.166374	0.986059	0.002782	-0.803374	0.133913	0.580221
09553	0	8.235890	0.092889	5.845720	0.027753	0.061065	0.287138	0.006344	-0.004752	0.001532	-0.296631	0.075439	-0.794922	0.082358	0.000928	0.058459	1.000000	0.000032	-0.000024	0.000008	0.571683	-0.098741	0.814511	0.166419	0.986051	0.002731	-0.803419	0.133989	0.580141
09554	0	8.233673	0.083233	5.867455	0.006531	0.055291	0.297913	0.006680	-0.006849	0.004466	-0.294434	0.073242	-0.799561	0.082335	0.000832	0.058677	1.000000	0.000033	-0.000034	0.000022	0.571608	-0.098662	0.814573	0.166387	0.986057	0.002675	-0.803480	0.134005	0.580054
09555	0	8.231627	0.073675	5.888954	-0.015263	0.049469	0.308686	0.008377	-0.010496	0.000687	-0.292236	0.075684	-0.802002	0.082313	0.000735	0.058894	1.000000	0.000042	-0.000052	0.000003	0.571454	-0.098606	0.814688	0.166337	0.986065	0.002673	-0.803599	0.133985	0.579893
09556	0	8.237350	0.093529	5.843654	0.026344	0.062965	0.287130	0.004851	-0.010271	0.001935	-0.298584	0.068848	-0.799316	0.082370	0.000935	0.058441	1.000000	0.000024	-0.000051	0.000010	0.571347	-0.098547	0.814770	0.166334	0.986066	0.002627	-0.803676	0.134023	0.579778
09557	0	8.232803	0.074059	5.887305	-0.016088	0.050198	0.308682	0.004343	-0.008835	0.002146	-0.294189	0.071045	-0.801758	0.082325	0.000740	0.058877	1.000000	0.000022	-0.000044	0.000011	0.571239	-0.098490	0.814853	0.166255	0.986079	0.002636	-0.803769	0.133968	0.579662
09558	0	8.253535	0.075536	5.835810	0.036144	0.043461	0.295726	0.006230	-0.010160	0.003775	-0.296631	0.073242	-0.801758	0.082532	0.000755	0.058362	1.000000	0.000031	-0.000051	0.000019	0.571136	-0.098414	0.814934	0.166230	0.986084	0.002582	-0.803848	0.133992	0.579547
09559	0	8.268056	0.068994	5.887369	0.000524	0.042698	0.337426	0.002791	-0.009605	0.003451	-0.296631	0.073242	-0.799561	0.082678	0.000691	0.058878	1.000000	0.000014	-0.000048	0.000017	0.571035	-0.098354	0.815012	0.166167	0.986094	0.002576	-0.803933	0.133957	0.579438
09560	0	8.234462	0.073983	5.884986	-0.017050	0.051510	0.308673	0.003748	-0.007729	0.003929	-0.301270	0.075439	-0.799561	0.082342	0.000740	0.058853	1.000000	0.000019	-0.000039	0.000020	0.570952	-0.098280	0.815080	0.166161	0.986096	0.002507	-0.803993	0.134003	0.579343
09561	0	8.286614	0.060496	5.857550	0.030522	0.030119	0.335252	0.005300	-0.006959	0.002624	-0.290039	0.077881	-0.802002	0.082864	0.000604	0.058578	1.000000	0.000026	-0.000035	0.000013	0.570795	-0.098204	0.815198	0.166112	0.986104	0.002481	-0.804114	0.133998	0.579176
09562	0	8.271921	0.078764	5.863292	0.019611	0.050997	0.326646	0.003412	-0.005633	0.000995	-0.294434	0.077881	-0.799805	0.082718	0.000787	0.058635	1.000000	0.000017	-0.000028	0.000005	0.570724	-0.098161	0.815254	0.166126	0.986102	0.002434	-0.804162	0.134045	0.579099
09563	0	8.267055	0.059375	5.907424	-0.021671	0.039193	0.348187	0.003947	-0.001991	0.000112	-0.291992	0.073486	-0.801758	0.082670	0.000593	0.059075	1.000000	0.000020	-0.000010	0.000001	0.570728	-0.098242	0.815241	0.166383	0.986058	0.002347	-0.804106	0.134303	0.579117
09564	0	8.250678	0.056180	5.877100	-0.007674	0.034185	0.317264	0.006621	-0.002099	0.005365	-0.298828	0.073242	-0.801758	0.082506	0.000562	0.058772	1.000000	0.000033	-0.000010	0.000027	0.570692	-0.098161	0.815276	0.166346	0.986065	0.002283	-0.804139	0.134315	0.579068
09565	0	8.253375	0.066132	5.854657	0.013051	0.040774	0.306490	0.004541	-0.003097	-0.001672	-0.294434	0.073242	-0.801758	0.082533	0.000659	0.058548	1.000000	0.000023	-0.000015	-0.000008	0.570643	-0.098180	0.815308	0.166355	0.986063	0.002309	-0.804172	0.134313	0.579023
09566	0	8.257496	0.097443	5.868652	0.008823	0.073727	0.318023	0.003182	-0.001544	0.005042	-0.299072	0.077637	-0.799805	0.082574	0.000976	0.058687	1.000000	0.000016	-0.000008	0.000025	0.570611	-0.098103	0.815340	0.166347	0.986065	0.002228	-0.804196	0.134359	0.578978
09567	0	8.223614	0.102426	5.866682	-0.008976	0.082515	0.289262	0.003326	-0.005963	0.002568	-0.292236	0.075439	-0.794922	0.082234	0.001024	0.058669	1.000000	0.000017	-0.000030	0.000013	0.570515	-0.098077	0.815410	0.166406	0.986055	0.002173	-0.804253	0.134449	0.578879
09568	0	8.253989	0.066063	5.853793	0.011958	0.042703	0.306484	0.003776	-0.002650	0.003258	-0.298828	0.073242	-0.804199	0.082539	0.000661	0.058539	1.000000	0.000019	-0.000013	0.000016	0.570471	-0.098016	0.815448	0.166404	0.986055	0.002110	-0.804284	0.134490	0.578826
09569	0	8.224026	0.102313	5.866106	-0.009600	0.083555	0.289253	0.005155	-0.002540	0.005097	-0.298828	0.075439	-0.799561	0.082239	0.001024	0.058662	1.000000	0.000026	-0.000013	0.000025	0.570426	-0.097961	0.815486	0.166386	0.986058	0.002066	-0.804320	0.134507	0.578773
09570	0	8.236730	0.074383	5.881806	-0.020232	0.057576	0.308635	0.004369	-0.003757	0.001473	-0.294434	0.075439	-0.794922	0.082366	0.000743	0.058820	1.000000	0.000022	-0.000019	0.000007	0.570370	-0.097917	0.815531	0.166390	0.986058	0.002020	-0.804358	0.134544	0.578710
09571	0	8.257094	0.075635	5.830772	0.031564	0.050804	0.295707	0.002138	-0.003750	0.006136	-0.296631	0.075439	-0.792725	0.082570	0.000758	0.058309	1.000000	0.000011	-0.000019	0.000031	0.570286	-0.097833	0.815600	0.166399	0.986057	0.001929	-0.804416	0.134615	0.578613
09572	0	8.254772	0.065705	5.852693	0.010321	0.045060	0.306475	0.005749	-0.003646	0.003313	-0.296875	0.079834	-0.795166	0.082547	0.000657	0.058528	1.000000	0.000029	-0.000018	0.000017	0.570234	-0.097770	0.815643	0.166381	0.986060	0.001877	-0.804457	0.134637	0.578552
09573	0	8.220865	0.070794	5.850761	-0.007846	0.054354	0.277705	0.002310	-0.003091	0.002990	-0.294434	0.075439	-0.792725	0.082208	0.000708	0.058509	1.000000	0.000012	-0.000015	0.000015	0.570128	-0.097717	0.815724	0.166472	0.986045	0.001769	-0.804513	0.134786	0.578439
09574	0	8.289253	0.060641	5.853813	0.026396	0.038701	0.335235	0.007300	-0.002876	0.002007	-0.296387	0.071045	-0.797119	0.082892	0.000605	0.058539	1.000000	0.000037	-0.000014	0.000010	0.570080	-0.097669	0.815763	0.166449	0.986048	0.001736	-0.804552	0.134794	0.578383
09575	0	8.255104	0.065863	5.852222	0.008499	0.047075	0.306468	0.006142	0.004415	0.004902	-0.296631	0.075439	-0.802002	0.082552	0.000659	0.058520	1.000000	0.000031	0.000022	0.000025	0.570078	-0.097579	0.815775	0.166321	0.986070	0.001721	-0.804580	0.134700	0.578366
09576	0	8.255001	0.065825	5.852369	0.008208	0.047728	0.306465	0.004733	-0.000774	0.003735	-0.296631	0.073242	-0.797119	0.082550	0.000658	0.058524	1.000000	0.000024	-0.000004	0.000019	0.570050	-0.097516	0.815803	0.166309	0.986072	0.001659	-0.804602	0.134730	0.578328
09577	0	8.254975	0.065679	5.852407	0.007724	0.048055	0.306464	0.003632	0.001769	0.005730	-0.296631	0.073242	-0.799561	0.082550	0.000658	0.058523	1.000000	0.000018	0.000009	0.000029	0.570031	-0.097453	0.815823	0.166278	0.986078	0.001609	-0.804622	0.134736	0.578299
09578	0	8.268744	0.058932	5.905064	-0.027825	0.048021	0.348134	0.004083	0.005081	0.006419	-0.301270	0.075439	-0.797363	0.082689	0.000591	0.059049	1.000000	0.000020	0.000025	0.000032	0.570054	-0.097372	0.815817	0.166256	0.986081	0.001522	-0.804610	0.134767	0.578309
09579	0	8.258585	0.096357	5.867138	0.002409	0.081420	0.317968	0.003632	0.001769	0.005730	-0.296875	0.080078	-0.799805	0.082586	0.000965	0.058671	1.000000	0.000018	0.000009	0.000029	0.569991	-0.097276	0.815872	0.166178	0.986095	0.001475	-0.804671	0.134739	0.578231
09580	0	8.254362	0.064952	5.853279	0.006045	0.049758	0.306457	0.005634	0.005851	0.005113	-0.296631	0.075439	-0.792725	0.082545	0.000650	0.058530	1.000000	0.000028	0.000029	0.000026	0.570018	-0.097209	0.815861	0.166151	0.986099	0.001407	-0.804657	0.134754	0.578246
09581	0	8.273086	0.077760	5.861661	0.012077	0.062851	0.326591	-0.000736	0.005527	0.004256	-0.294434	0.073242	-0.792480	0.082732	0.000780	0.058614	1.000000	-0.000004	0.000028	0.000021	0.570003	-0.097183	0.815875	0.166289	0.986076	0.001280	-0.804640	0.134941	0.578227
09582	0	8.230452	0.019932	5.832401	0.002379	0.007016	0.274809	0.002925	0.012373	0.009313	-0.292236	0.077881	-0.806641	0.082308	0.000202	0.058319	1.000000	0.000015	0.000062	0.000047	0.570089	-0.097083	0.815827	0.166260	0.986081	0.001162	-0.804584	0.134977	0.578295
09583	0	8.250534	0.053937	5.877323	-0.015538	0.045442	0.317211	0.000193	0.002325	0.005407	-0.294434	0.073242	-0.799561	0.082506	0.000542	0.058772	1.000000	0.000001	0.000012	0.000027	0.570129	-0.097071	0.815800	0.166349	0.986066	0.001076	-0.804537	0.135094	0.578333
09584	0	8.273082	0.064625	5.804605	0.057651	0.044981	0.293556	0.004504	0.003316	0.007781	-0.291992	0.073242	-0.799561	0.082732	0.000648	0.058045	1.000000	0.000023	0.000017	0.000039	0.570140	-0.096974	0.815804	0.166317	0.986072	0.000979	-0.804536	0.135123	0.578328
09585	0	8.295392	-0.001279	5.858970	0.016150	-0.014653	0.343128	0.005604	0.000773	0.005786	-0.296631	0.075439	-0.799561	0.082954	-0.000012	0.058589	1.000000	0.000028	0.000004	0.000029	0.570174	-0.096926	0.815786	0.166246	0.986084	0.000966	-0.804527	0.135070	0.578353
09586	0	8.280183	0.016837	5.865452	0.005270	0.006233	0.334488	0.007607	0.004854	0.005168	-0.296631	0.075439	-0.802002	0.082803	0.000168	0.058653	1.000000	0.000038	0.000024	0.000026	0.570193	-0.096857	0.815781	0.166203	0.986091	0.000909	-0.804522	0.135067	0.578360
09587	0	8.333991	0.013168	5.817051	0.074654	-0.009005	0.350383	0.009189	0.010701	0.003188	-0.292236	0.075684	-0.802002	0.083343	0.000130	0.058166	1.000000	0.000046	0.000054	0.000016	0.570247	-0.096847	0.815744	0.166178	0.986095	0.000904	-0.804489	0.135044	0.578412
09588	0	8.310386	0.002570	5.891246	0.000872	-0.007220	0.374032	0.014661	0.019303	0.002219	-0.294434	0.075439	-0.797363	0.083110	0.000022	0.058904	1.000000	0.000073	0.000097	0.000011	0.570378	-0.096826	0.815655	0.166095	0.986109	0.000912	-0.804414	0.134957	0.578537
09589	0	8.316978	0.032206	5.826102	0.064016	0.012256	0.341739	0.008118	0.018323	0.004506	-0.296631	0.073242	-0.799561	0.083175	0.000322	0.058253	1.000000	0.000041	0.000092	0.000023	0.570541	-0.096838	0.815540	0.166114	0.986106	0.000881	-0.804294	0.134970	0.578701
09590	0	8.281865	0.037484	5.825859	0.046478	0.021051	0.312959	0.014821	0.016553	0.008299	-0.292236	0.077881	-0.799805	0.082823	0.000374	0.058252	1.000000	0.000074	0.000083	0.000041	0.570660	-0.096754	0.815467	0.165995	0.986126	0.000840	-0.804234	0.134884	0.578803
09591	0	8.300034	0.050858	5.835037	0.053067	0.033563	0.333093	0.014543	0.013897	0.004465	-0.294434	0.075439	-0.797363	0.083004	0.000506	0.058345	1.000000	0.000073	0.000069	0.000022	0.570764	-0.096746	0.815395	0.165942	0.986135	0.000848	-0.804171	0.134825	0.578905
09592	0	8.297758	0.029590	5.799855	0.077653	0.008246	0.310843	0.010423	0.015234	0.007496	-0.296631	0.073242	-0.804199	0.082982	0.000296	0.057992	1.000000	0.000052	0.000076	0.000037	0.570871	-0.096668	0.815329	0.165863	0.986148	0.000788	-0.804112	0.134783	0.578997
09593	0	8.245179	0.043233	5.827824	0.028534	0.030489	0.284175	0.012395	0.014238	0.007552	-0.294434	0.073242	-0.797119	0.082456	0.000432	0.058272	1.000000	0.000062	0.000071	0.000038	0.570968	-0.096611	0.815268	0.165748	0.986168	0.000782	-0.804067	0.134682	0.579083
09594	0	8.245816	0.064865	5.865313	0.003369	0.057108	0.306419	0.012902	0.012801	0.007342	-0.298828	0.075439	-0.799561	0.082462	0.000648	0.058648	1.000000	0.000065	0.000064	0.000037	0.571055	-0.096531	0.815217	0.165650	0.986184	0.000738	-0.804025	0.134619	0.579156
09595	0	8.206938	0.038989	5.850542	-0.010768	0.033247	0.266151	0.015833	0.013681	0.007876	-0.298828	0.075439	-0.802002	0.082073	0.000388	0.058500	1.000000	0.000079	0.000068	0.000039	0.571114	-0.096439	0.815186	0.165467	0.986215	0.000747	-0.804021	0.134460	0.579199
09596	0	8.223968	0.030790	5.822944	0.020485	0.020014	0.264041	0.016308	0.007167	0.008344	-0.296631	0.073242	-0.801758	0.082242	0.000307	0.058227	1.000000	0.000082	0.000036	0.000042	0.571157	-0.096342	0.815167	0.165336	0.986237	0.000715	-0.804017	0.134368	0.579225
09597	0	8.223621	0.031013	5.823434	0.019694	0.020297	0.264042	0.013884	0.004851	0.007600	-0.296631	0.075439	-0.804199	0.082238	0.000309	0.058232	1.000000	0.000069	0.000024	0.000038	0.571144	-0.096254	0.815187	0.165187	0.986262	0.000719	-0.804057	0.134248	0.579198
09598	0	8.208423	0.049436	5.829853	0.008832	0.041175	0.255384	0.016783	0.000653	0.008812	-0.290039	0.080078	-0.804443	0.082084	0.000493	0.058298	1.000000	0.000084	0.000003	0.000044	0.571135	-0.096144	0.815206	0.165050	0.986285	0.000686	-0.804091	0.134158	0.579171
09599	0	8.226080	0.041447	5.801379	0.040834	0.028018	0.253278	0.018059	-0.001237	0.003675	-0.292236	0.077881	-0.797363	0.082260	0.000411	0.058014	1.000000	0.000090	-0.000006	0.000018	0.571146	-0.096183	0.815194	0.165119	0.986273	0.000681	-0.804070	0.134215	0.579187
09600	0	8.245239	0.055036	5.809149	0.047214	0.040759	0.273408	0.017796	-0.002219	0.008393	-0.298828	0.073242	-0.804199	0.082452	0.000549	0.058092	1.000000	0.000089	-0.000011	0.000042	0.571113	-0.096072	0.815230	0.164976	0.986297	0.000657	-0.804122	0.134118	0.579137
09601	0	8.276817	0.040549	5.833007	0.043117	0.026776	0.312960	0.017377	-0.000455	0.007029	-0.294434	0.077637	-0.795166	0.082768	0.000403	0.058330	1.000000	0.000087	-0.000002	0.000035	0.571084	-0.096013	0.815257	0.164885	0.986313	0.000657	-0.804162	0.134048	0.579098
09602	0	8.295840	0.054103	5.840968	0.049494	0.039522	0.333089	0.018422	0.001749	0.005930	-0.292236	0.077881	-0.799805	0.082959	0.000538	0.058409	1.000000	0.000092	0.000009	0.000030	0.571080	-0.095932	0.815270	0.164751	0.986335	0.000657	-0.804192	0.133941	0.579081
09603	0	8.295618	0.054652	5.841278	0.049454	0.040447	0.333086	0.015524	0.005947	0.004715	-0.296631	0.075439	-0.804199	0.082958	0.000544	0.058410	1.000000	0.000078	0.000030	0.000024	0.571113	-0.095930	0.815247	0.164792	0.986328	0.000618	-0.804160	0.133993	0.579113
09604	0	8.297905	0.064918	5.819466	0.070143	0.047430	0.322324	0.017496	0.004950	0.004773	-0.292236	0.075684	-0.804199	0.082980	0.000646	0.058193	1.000000	0.000087	0.000025	0.000024	0.571132	-0.095865	0.815241	0.164672	0.986348	0.000622	-0.804171	0.133892	0.579121
09605	0	8.348216	0.063821	5.851700	0.073204	0.045471	0.382005	0.015247	0.003287	0.000885	-0.290039	0.077881	-0.797363	0.083483	0.000634	0.058516	1.000000	0.000076	0.000016	0.000004	0.571157	-0.095910	0.815218	0.164688	0.986346	0.000660	-0.804150	0.133879	0.579154
09606	0	8.312235	0.048154	5.814284	0.080548	0.028250	0.330989	0.015137	0.012789	0.002666	-0.298828	0.075439	-0.804199	0.083126	0.000478	0.058138	1.000000	0.000076	0.000064	0.000013	0.571236	-0.095877	0.815167	0.164599	0.986360	0.000667	-0.804112	0.133795	0.579226
09607	0	8.315573	0.080110	5.829334	0.076575	0.061291	0.342443	0.012801	0.010799	0.000351	-0.294434	0.075439	-0.797363	0.083159	0.000798	0.058289	1.000000	0.000064	0.000054	0.000002	0.571300	-0.095923	0.815117	0.164655	0.986351	0.000671	-0.804056	0.133830	0.579296
09608	0	8.272628	0.023395	5.800582	0.066807	0.005397	0.290737	0.012239	0.016987	0.001448	-0.294434	0.077881	-0.806641	0.082731	0.000231	0.057999	1.000000	0.000061	0.000085	0.000007	0.571411	-0.095907	0.815041	0.164597	0.986361	0.000671	-0.803989	0.133770	0.579403
09609	0	8.274243	0.033659	5.779747	0.087733	0.012395	0.279976	0.015080	0.017540	0.003554	-0.287598	0.073486	-0.797119	0.082747	0.000334	0.057790	1.000000	0.000075	0.000088	0.000018	0.571536	-0.095939	0.814949	0.164627	0.986356	0.000663	-0.803893	0.133784	0.579532
09610	0	8.277261	0.065819	5.795237	0.083583	0.045385	0.291426	0.022130	0.017078	0.001059	-0.296875	0.077881	-0.804443	0.082778	0.000652	0.057945	1.000000	0.000111	0.000085	0.000005	0.571647	-0.095927	0.814873	0.164492	0.986378	0.000723	-0.803842	0.133626	0.579640
09611	0	8.244798	0.082041	5.772608	0.087580	0.060348	0.251861	0.027120	0.017287	0.000077	-0.292236	0.080078	-0.799805	0.082453	0.000813	0.057719	1.000000	0.000136	0.000086	0.000000	0.571789	-0.095997	0.814765	0.164427	0.986389	0.000825	-0.803754	0.133498	0.579791
09612	0	8.226173	0.092491	5.802353	0.055777	0.074925	0.253943	0.037517	0.015942	-0.000519	-0.296631	0.073242	-0.797119	0.082266	0.000914	0.058017	1.000000	0.000188	0.000080	-0.000003	0.571889	-0.095999	0.814695	0.164177	0.986430	0.000988	-0.803734	0.133190	0.579889
09613	0	8.239186	0.121910	5.950939	-0.050607	0.121037	0.350753	0.038715	0.015407	0.004465	-0.296875	0.077881	-0.809082	0.082396	0.001209	0.059503	1.000000	0.000194	0.000077	0.000022	0.571971	-0.095987	0.814638	0.163980	0.986463	0.001099	-0.803716	0.132956	0.579969
09614	0	8.237022	0.101803	5.915697	-0.026049	0.095653	0.328542	0.026817	0.011237	0.005477	-0.292236	0.075684	-0.804199	0.082374	0.001012	0.059152	1.000000	0.000134	0.000056	0.000027	0.572043	-0.095923	0.814595	0.163782	0.986496	0.001151	-0.803705	0.132758	0.580028
09615	0	8.252461	0.227993	5.972607	-0.041289	0.225802	0.374286	0.040391	0.010050	0.018474	-0.296875	0.077637	-0.799805	0.082527	0.002275	0.059722	1.000000	0.000202	0.000050	0.000092	0.572139	-0.095837	0.814538	0.163596	0.986527	0.001161	-0.803675	0.132591	0.580109
09616	0	8.260564	0.290864	6.000524	-0.049247	0.291165	0.397141	0.025374	-0.010554	0.022597	-0.298584	0.068848	-0.803955	0.082602	0.002910	0.060010	1.000000	0.000127	-0.000053	0.000113	0.572063	-0.095575	0.814622	0.163312	0.986574	0.001064	-0.803786	0.132429	0.579991
09617	0	8.309464	0.211600	5.863287	0.072961	0.191282	0.357277	0.030047	-0.031301	0.027522	-0.294678	0.080078	-0.802002	0.083085	0.002119	0.058646	1.000000	0.000150	-0.000157	0.000138	0.571775	-0.095235	0.814864	0.162916	0.986639	0.000996	-0.804072	0.132185	0.579651
09618	0	8.323837	0.183538	5.876664	0.062213	0.165398	0.376714	0.048510	-0.034296	0.032559	-0.291992	0.068848	-0.803955	0.083228	0.001835	0.058781	1.000000	0.000243	-0.000171	0.000163	0.571524	-0.094844	0.815086	0.162389	0.986726	0.000952	-0.804357	0.131817	0.579340
09619	0	8.320606	0.130278	5.823238	0.091040	0.107425	0.343085	0.050867	-0.040432	0.043212	-0.298828	0.071045	-0.804199	0.083194	0.001306	0.058250	1.000000	0.000254	-0.000202	0.000216	0.571264	-0.094424	0.815317	0.161897	0.986807	0.000848	-0.804641	0.131513	0.579014
09620	0	8.357353	0.002792	5.795753	0.108991	-0.023656	0.357056	0.066307	-0.044630	0.049277	-0.291992	0.071045	-0.797119	0.083561	0.000029	0.057976	1.000000	0.000332	-0.000223	0.000246	0.570957	-0.093854	0.815598	0.161131	0.986933	0.000771	-0.805013	0.130978	0.578619
09621	0	8.407171	-0.042279	5.751973	0.161123	-0.078058	0.372373	0.091153	-0.032402	0.054631	-0.296631	0.073242	-0.792480	0.084063	-0.000426	0.057533	1.000000	0.000456	-0.000162	0.000273	0.570750	-0.093269	0.815810	0.160085	0.987103	0.000855	-0.805368	0.130110	0.578320
09622	0	8.462756	-0.045240	5.701146	0.230537	-0.093217	0.388367	0.125508	-0.013260	0.057496	-0.296631	0.073242	-0.797119	0.084624	-0.000464	0.057017	1.000000	0.000628	-0.000066	0.000287	0.570707	-0.092660	0.815909	0.158795	0.987311	0.001053	-0.805654	0.128961	0.578179
09623	0	8.493477	-0.091387	5.631059	0.296480	-0.152743	0.372846	0.164214	0.023494	0.070701	-0.301025	0.071045	-0.797119	0.084942	-0.000930	0.056300	1.000000	0.000821	0.000117	0.000354	0.570931	-0.091956	0.815832	0.157111	0.987580	0.001366	-0.805825	0.127397	0.578287
09624	0	8.539122	-0.045104	5.523615	0.418357	-0.128818	0.347891	0.214442	0.031928	0.080046	-0.294434	0.073242	-0.801758	0.085400	-0.000476	0.055222	0.999999	0.001072	0.000160	0.000400	0.571285	-0.091182	0.815671	0.154975	0.987917	0.001894	-0.805988	0.125327	0.578513
09625	0	8.543969	0.001893	5.518081	0.434649	-0.089361	0.348598	0.262481	0.039010	0.083888	-0.296387	0.068848	-0.794678	0.085450	-0.000018	0.055164	0.999999	0.001312	0.000195	0.000419	0.571649	-0.090396	0.815504	0.152490	0.988301	0.002658	-0.806204	0.122837	0.578746
09626	0	8.463337	0.108872	5.314935	0.571757	-0.007826	0.165362	0.252225	0.052628	0.089894	-0.301025	0.071045	-0.804199	0.084647	0.001060	0.053128	0.999999	0.001261	0.000263	0.000449	0.572181	-0.089548	0.815224	0.149992	0.988682	0.003326	-0.806295	0.120374	0.579136
09627	0	8.259562	0.155934	5.284640	0.488418	0.048243	-0.018239	0.253153	0.031886	0.097642	-0.296387	0.071045	-0.804199	0.082603	0.001533	0.052835	0.999999	0.001266	0.000159	0.000488	0.572473	-0.088600	0.815122	0.147508	0.989053	0.003908	-0.806546	0.118000	0.579276
09628	0	8.288272	0.323757	5.247280	0.556835	0.203391	-0.015607	0.246155	-0.058408	0.103505	-0.293945	0.062256	-0.796875	0.082866	0.003216	0.052501	0.999999	0.001231	-0.000292	0.000518	0.572125	-0.087484	0.815488	0.144979	0.989425	0.004430	-0.807251	0.115695	0.578757
09629	0	8.548123	0.553653	5.071015	0.871389	0.386225	0.096078	0.237420	-0.097918	0.106786	-0.296387	0.068848	-0.799316	0.085453	0.005522	0.050759	0.999999	0.001187	-0.000490	0.000534	0.571427	-0.086343	0.816098	0.142636	0.989763	0.004843	-0.808162	0.113637	0.577893
09630	0	8.529842	0.855560	5.076536	0.890218	0.687061	0.086649	0.217346	-0.045303	0.115137	-0.296143	0.064453	-0.799316	0.085282	0.008550	0.050794	0.999999	0.001087	-0.000227	0.000576	0.571195	-0.085128	0.816388	0.140271	0.990100	0.005100	-0.808740	0.111603	0.577481
09631	0	8.440299	1.008434	4.964001	0.946240	0.835119	-0.050306	0.187569	-0.011775	0.120585	-0.293701	0.060059	-0.794434	0.084394	0.010089	0.049654	0.999999	0.000938	-0.000059	0.000603	0.571196	-0.083975	0.816507	0.138357	0.990369	0.005067	-0.809069	0.110075	0.577313
09632	0	8.489747	1.168184	4.875260	1.067287	0.982468	-0.060545	0.164522	0.036421	0.139212	-0.296143	0.060059	-0.796631	0.084898	0.011701	0.048747	0.999999	0.000823	0.000182	0.000696	0.571652	-0.082612	0.816327	0.136281	0.990658	0.004820	-0.809099	0.108494	0.577571
09633	0	8.583866	1.192056	4.822493	1.170706	0.997630	-0.015016	0.140878	0.088742	0.151875	-0.295898	0.057861	-0.796631	0.085851	0.011952	0.048195	0.999999	0.000704	0.000444	0.000759	0.572507	-0.081202	0.815869	0.134362	0.990923	0.004341	-0.808815	0.107137	0.578221
09634	0	8.594460	1.179824	4.882458	1.135123	0.997819	0.026569	0.118151	0.118549	0.163985	-0.296143	0.064453	-0.801514	0.085964	0.011840	0.048781	0.999999	0.000591	0.000593	0.000820	0.573655	-0.079680	0.815212	0.132518	0.991174	0.003627	-0.808306	0.105949	0.579151
09635	0	8.647599	1.123975	4.985067	1.084564	0.957279	0.127258	0.103203	0.108567	0.165286	-0.296143	0.064453	-0.801514	0.086494	0.011286	0.049810	0.999999	0.000516	0.000543	0.000826	0.574650	-0.078184	0.814656	0.130915	0.991390	0.002800	-0.807861	0.105041	0.579938
09636	0	8.754467	0.975092	5.109316	1.034497	0.823136	0.284285	0.092418	0.078104	0.160349	-0.296143	0.060059	-0.796631	0.087557	0.009798	0.051063	0.999999	0.000462	0.000391	0.000802	0.575460	-0.076653	0.814230	0.129297	0.991604	0.001970	-0.807544	0.104144	0.580539
09637	0	8.896831	0.706528	5.189112	1.022328	0.563894	0.444824	0.072622	0.052146	0.150199	-0.289307	0.062256	-0.801514	0.088977	0.007113	0.051870	1.000000	0.000363	0.000261	0.000751	0.575938	-0.075239	0.814024	0.128047	0.991768	0.001072	-0.807403	0.103616	0.580831
09638	0	9.002328	0.435508	5.288395	0.972999	0.306201	0.587226	0.063239	0.040437	0.124135	-0.287354	0.066895	-0.803955	0.090031	0.004394	0.052867	1.000000	0.000316	0.000202	0.000621	0.576393	-0.074027	0.813813	0.126872	0.991919	0.000369	-0.807264	0.103038	0.581127
09639	0	9.066393	0.231669	5.381245	0.913717	0.115744	0.692676	0.069089	0.036651	0.099661	-0.287354	0.066650	-0.796875	0.090673	0.002343	0.053797	1.000000	0.000345	0.000183	0.000498	0.576785	-0.073270	0.813604	0.126251	0.991998	-0.000167	-0.807081	0.102815	0.581420
09640	0	9.085556	0.049860	5.396854	0.893047	-0.060197	0.717018	0.075432	0.036173	0.075817	-0.298340	0.060059	-0.801270	0.090865	0.000513	0.053952	1.000000	0.000377	0.000181	0.000379	0.577142	-0.072532	0.813416	0.125257	0.992124	-0.000407	-0.806980	0.102121	0.581682
09641	0	9.048273	-0.045430	5.412955	0.850496	-0.148378	0.695787	0.092506	0.061093	0.057548	-0.286865	0.057861	-0.799072	0.090499	-0.000453	0.054102	1.000000	0.000463	0.000305	0.000288	0.577584	-0.072077	0.813143	0.124458	0.992225	-0.000452	-0.806788	0.101463	0.582063
09642	0	8.873373	-0.001153	5.466987	0.718606	-0.087125	0.584462	0.111037	0.085370	0.055677	-0.289307	0.057861	-0.805908	0.088757	-0.000017	0.054632	1.000000	0.000555	0.000427	0.000278	0.578311	-0.071588	0.812669	0.123293	0.992370	-0.000320	-0.806446	0.100381	0.582725
09643	0	8.663615	0.112839	5.412871	0.664127	0.033251	0.381818	0.124875	0.107478	0.057744	-0.284668	0.060059	-0.799072	0.086665	0.001120	0.054083	1.000000	0.000624	0.000537	0.000289	0.579196	-0.071225	0.812071	0.122191	0.992507	-0.000101	-0.805979	0.099286	0.583558
09644	0	8.463469	0.100433	5.391496	0.575153	0.030037	0.206140	0.146026	0.131742	0.061044	-0.287109	0.060059	-0.799072	0.084670	0.000991	0.053860	0.999999	0.000730	0.000659	0.000305	0.580301	-0.070726	0.811325	0.120713	0.992687	0.000195	-0.805406	0.097824	0.584595
09645	0	8.258636	0.269728	5.387318	0.492120	0.209581	0.036927	0.156657	0.134171	0.087193	-0.286865	0.055664	-0.796631	0.082621	0.002691	0.053820	0.999999	0.000783	0.000671	0.000436	0.581415	-0.070097	0.810582	0.119279	0.992861	0.000303	-0.804816	0.096510	0.585625
09646	0	8.117349	0.165936	5.287631	0.490745	0.105318	-0.136635	0.159485	0.148364	0.106105	-0.286865	0.057861	-0.796631	0.081212	0.001660	0.052817	0.999999	0.000797	0.000742	0.000531	0.582704	-0.069162	0.809736	0.117432	0.993081	0.000316	-0.804156	0.094904	0.586794
09647	0	8.030375	0.242179	5.370790	0.395069	0.195163	-0.158840	0.161876	0.156653	0.130505	-0.284668	0.057861	-0.799072	0.080344	0.002431	0.053647	0.999999	0.000809	0.000783	0.000653	0.583987	-0.067996	0.808910	0.115478	0.993310	0.000127	-0.803508	0.093337	0.587932
09648	0	7.954495	0.251769	5.378055	0.360504	0.212048	-0.216547	0.148680	0.156908	0.143468	-0.282227	0.053467	-0.798828	0.079585	0.002535	0.053720	0.999999	0.000743	0.000785	0.000717	0.585381	-0.066693	0.808011	0.113498	0.993538	-0.000220	-0.802775	0.091836	0.589168
09649	0	7.975552	0.210249	5.379906	0.380234	0.172420	-0.199015	0.159568	0.153603	0.155631	-0.280029	0.053467	-0.798828	0.079795	0.002122	0.053739	0.999999	0.000798	0.000768	0.000778	0.586677	-0.065319	0.807183	0.111500	0.993764	-0.000622	-0.802109	0.090366	0.590302
09650	0	8.018680	0.227679	5.460562	0.357937	0.197066	-0.117233	0.142536	0.169050	0.147639	-0.277588	0.051270	-0.798828	0.080231	0.002297	0.054539	0.999999	0.000713	0.000845	0.000738	0.588165	-0.063981	0.806206	0.109543	0.993982	-0.001034	-0.801288	0.088922	0.591634
09651	0	7.969030	0.135998	5.566597	0.248904	0.122218	-0.094970	0.084176	0.159946	0.128861	-0.277832	0.055664	-0.796631	0.079734	0.001388	0.055603	0.999999	0.000421	0.000800	0.000644	0.589500	-0.062877	0.805317	0.108261	0.994121	-0.001630	-0.800480	0.088145	0.592842
