// Start Time: Unknown
// Update Rate: 100.0Hz
// Filter Profile: human (46.1)
// Option Flags: AHS Disabled ICC Disabled 
// Firmware Version: 4.0.2
PacketCounter	SampleTimeFine	Acc_X	Acc_Y	Acc_Z	FreeAcc_X	FreeAcc_Y	FreeAcc_Z	Gyr_X	Gyr_Y	Gyr_Z	Mag_X	Mag_Y	Mag_Z	VelInc_X	VelInc_Y	VelInc_Z	OriInc_q0	OriInc_q1	OriInc_q2	OriInc_q3	Mat[1][1]	Mat[2][1]	Mat[3][1]	Mat[1][2]	Mat[2][2]	Mat[3][2]	Mat[1][3]	Mat[2][3]	Mat[3][3]
16803	0	8.528382	-0.011849	5.453349	0.000000	-0.000000	10.433048	0.032036	0.013350	0.017232	-0.324463	0.093018	-0.788574	0.170582	-0.000243	0.109044	1.000000	0.000320	0.000133	0.000172	0.527445	-0.109068	0.842559	0.204336	0.978900	-0.001198	-0.824650	0.172797	0.538603
16804	0	8.542344	-0.044249	5.400731	0.000000	-0.000000	0.293820	0.026923	0.025153	0.013557	-0.324707	0.099609	-0.786621	0.085430	-0.000444	0.053997	1.000000	0.000135	0.000126	0.000068	0.522913	-0.109685	0.845300	0.212085	0.977241	-0.004393	-0.825580	0.181573	0.534275
16805	0	8.541082	-0.043784	5.402731	0.025984	-0.027097	0.293751	0.026306	0.021400	0.009208	-0.324463	0.095215	-0.781738	0.085417	-0.000441	0.054018	1.000000	0.000132	0.000107	0.000046	0.525836	-0.110270	0.843408	0.208641	0.977990	-0.002215	-0.824600	0.177134	0.537269
16806	0	8.585374	-0.025643	5.379870	0.073923	-0.019613	0.318772	0.027630	0.022784	0.004352	-0.320068	0.097412	-0.793457	0.085860	-0.000262	0.053789	1.000000	0.000138	0.000114	0.000022	0.526033	-0.110267	0.843285	0.208390	0.978044	-0.002103	-0.824538	0.176839	0.537462
16807	0	8.580377	-0.069034	5.439699	0.014710	-0.052289	0.346791	0.025978	0.016318	0.006578	-0.324707	0.099609	-0.784180	0.085808	-0.000695	0.054390	1.000000	0.000130	0.000082	0.000033	0.526185	-0.110232	0.843195	0.208142	0.978097	-0.002021	-0.824504	0.176567	0.537603
16808	0	8.614275	-0.029413	5.411281	0.065504	-0.023626	0.360007	0.023580	0.013538	0.000525	-0.320068	0.099609	-0.784180	0.086146	-0.000300	0.054107	1.000000	0.000118	0.000068	0.000003	0.526297	-0.110250	0.843123	0.207944	0.978139	-0.001898	-0.824482	0.176322	0.537718
16809	0	8.624057	-0.049572	5.417854	0.062627	-0.044784	0.371812	0.019649	0.023524	-0.000585	-0.324707	0.099609	-0.784180	0.086247	-0.000501	0.054168	1.000000	0.000098	0.000118	-0.000003	0.526488	-0.110296	0.842998	0.207785	0.978173	-0.001789	-0.824400	0.176105	0.537914
16810	0	8.564477	-0.039779	5.463790	-0.002175	-0.022145	0.346267	0.016764	0.029080	-0.001215	-0.327148	0.101807	-0.784424	0.085653	-0.000403	0.054625	1.000000	0.000084	0.000145	-0.000006	0.526726	-0.110359	0.842841	0.207654	0.978201	-0.001689	-0.824282	0.175908	0.538160
16811	0	8.523196	-0.016316	5.409006	0.028812	-0.005846	0.281946	0.016416	0.030557	-0.001377	-0.317627	0.093018	-0.786377	0.085240	-0.000168	0.054077	1.000000	0.000082	0.000153	-0.000007	0.526971	-0.110422	0.842680	0.207526	0.978228	-0.001592	-0.824157	0.175717	0.538413
16812	0	8.506763	-0.038439	5.464780	-0.027589	-0.017349	0.298161	0.013370	0.030001	0.000208	-0.319824	0.093018	-0.788574	0.085076	-0.000388	0.054635	1.000000	0.000067	0.000150	0.000001	0.527218	-0.110473	0.842518	0.207414	0.978252	-0.001522	-0.824027	0.175553	0.538666
16813	0	8.487080	-0.057926	5.419933	-0.002311	-0.043395	0.257450	0.011939	0.029498	-0.001340	-0.324707	0.099609	-0.777344	0.084879	-0.000583	0.054187	1.000000	0.000060	0.000147	-0.000007	0.527455	-0.110533	0.842362	0.207323	0.978271	-0.001451	-0.823899	0.175407	0.538910
16814	0	8.529015	-0.035410	5.421822	0.025910	-0.026964	0.293751	0.009341	0.033726	-0.000253	-0.322510	0.101807	-0.784424	0.085299	-0.000357	0.054204	1.000000	0.000047	0.000169	-0.000001	0.527732	-0.110594	0.842180	0.207247	0.978288	-0.001399	-0.823740	0.175278	0.539194
16815	0	8.546441	-0.072486	5.459240	0.000419	-0.060263	0.328642	0.029467	0.048336	0.003262	-0.322266	0.097412	-0.786377	0.085478	-0.000732	0.054572	1.000000	0.000147	0.000242	0.000016	0.528132	-0.110638	0.841924	0.206988	0.978343	-0.001277	-0.823549	0.174942	0.539594
16816	0	8.543402	-0.070945	5.464014	0.000419	-0.060263	0.328642	0.032372	0.062892	0.000190	-0.324463	0.093018	-0.783936	0.085451	-0.000718	0.054613	1.000000	0.000162	0.000314	0.000001	0.528650	-0.110746	0.841585	0.206720	0.978400	-0.001104	-0.823284	0.174556	0.540124
16817	0	8.559378	-0.107124	5.503675	-0.025072	-0.093451	0.363535	0.035401	0.070010	0.001056	-0.322266	0.093018	-0.781738	0.085613	-0.001081	0.055007	1.000000	0.000177	0.000350	0.000005	0.529223	-0.110839	0.841212	0.206423	0.978462	-0.000941	-0.822990	0.174144	0.540704
16818	0	8.555467	-0.105116	5.509792	-0.025072	-0.093451	0.363535	0.038106	0.072043	-0.000698	-0.320068	0.095215	-0.784180	0.085575	-0.001062	0.055067	1.000000	0.000191	0.000360	-0.000003	0.529814	-0.110971	0.840822	0.206113	0.978528	-0.000729	-0.822687	0.173691	0.541311
16819	0	8.607956	-0.107175	5.496350	0.020003	-0.106727	0.400367	0.027845	0.069118	-0.005303	-0.320068	0.099609	-0.786621	0.086099	-0.001082	0.054934	1.000000	0.000139	0.000346	-0.000027	0.530371	-0.111109	0.840453	0.205912	0.978570	-0.000574	-0.822379	0.173364	0.541884
16820	0	8.580265	-0.111217	5.526689	-0.013825	-0.105997	0.393495	0.030267	0.072476	-0.008780	-0.319824	0.093018	-0.788574	0.085823	-0.001124	0.055236	1.000000	0.000151	0.000362	-0.000044	0.530949	-0.111320	0.840060	0.205710	0.978613	-0.000336	-0.822056	0.172987	0.542493
16821	0	8.585141	-0.071994	5.551687	-0.016593	-0.066997	0.411122	0.020783	0.079420	-0.011280	-0.320068	0.097412	-0.788818	0.085873	-0.000731	0.055483	1.000000	0.000104	0.000397	-0.000056	0.531577	-0.111514	0.839637	0.205599	0.978636	-0.000191	-0.821678	0.172730	0.543148
16822	0	8.500373	-0.072180	5.602229	-0.095505	-0.052579	0.367422	0.015200	0.082943	-0.010192	-0.324463	0.095215	-0.791016	0.085027	-0.000730	0.055987	1.000000	0.000076	0.000415	-0.000051	0.532238	-0.111756	0.839186	0.205528	0.978651	-0.000023	-0.821268	0.172489	0.543844
16823	0	8.408829	-0.060725	5.599811	-0.131998	-0.034090	0.289361	0.011136	0.080255	-0.011565	-0.320068	0.099609	-0.786621	0.084111	-0.000615	0.055964	1.000000	0.000056	0.000401	-0.000058	0.532884	-0.111943	0.838751	0.205499	0.978657	0.000056	-0.820857	0.172333	0.544514
16824	0	8.380484	-0.065738	5.630666	-0.165826	-0.033361	0.282491	0.004968	0.079298	-0.006858	-0.317871	0.097412	-0.786377	0.083827	-0.000662	0.056273	1.000000	0.000025	0.000396	-0.000034	0.533520	-0.112146	0.838319	0.205494	0.978658	0.000140	-0.820444	0.172195	0.545179
16825	0	8.300167	-0.076589	5.632419	-0.204767	-0.036006	0.216248	0.007896	0.066463	-0.000694	-0.317871	0.099609	-0.786621	0.083020	-0.000768	0.056297	1.000000	0.000039	0.000332	-0.000003	0.534109	-0.112197	0.837938	0.205433	0.978671	0.000096	-0.820076	0.172089	0.545766
16826	0	8.339997	-0.107782	5.647604	-0.196364	-0.070135	0.258019	0.008488	0.057248	0.000307	-0.315430	0.095215	-0.786377	0.083416	-0.001080	0.056452	1.000000	0.000042	0.000286	0.000002	0.534579	-0.112293	0.837625	0.205362	0.978686	0.000140	-0.819788	0.171941	0.546246
16827	0	8.328377	-0.090647	5.622995	-0.172697	-0.056959	0.234953	0.010640	0.048235	-0.000258	-0.315430	0.095215	-0.788818	0.083297	-0.000910	0.056210	1.000000	0.000053	0.000241	-0.000001	0.535065	-0.112299	0.837314	0.205275	0.978704	0.000085	-0.819492	0.171834	0.546723
16828	0	8.355940	-0.095576	5.656072	-0.181152	-0.060961	0.276192	0.010815	0.054344	-0.002494	-0.319824	0.090820	-0.790771	0.083575	-0.000960	0.056538	1.000000	0.000054	0.000272	-0.000012	0.535505	-0.112416	0.837017	0.205200	0.978720	0.000165	-0.819224	0.171667	0.547178
16829	0	8.350613	-0.090047	5.684666	-0.199271	-0.050926	0.287509	0.009776	0.058775	-0.002999	-0.313232	0.097412	-0.784180	0.083523	-0.000905	0.056822	1.000000	0.000049	0.000294	-0.000015	0.536113	-0.112457	0.836622	0.205137	0.978733	0.000107	-0.818842	0.171565	0.547780
16830	0	8.347226	-0.089134	5.689653	-0.199271	-0.050926	0.287509	0.010993	0.060454	-0.004737	-0.313477	0.099609	-0.791260	0.083489	-0.000896	0.056871	1.000000	0.000055	0.000302	-0.000024	0.536598	-0.112607	0.836291	0.205072	0.978747	0.000207	-0.818540	0.171389	0.548286
16831	0	8.287129	-0.083994	5.713940	-0.242216	-0.036050	0.250746	0.014643	0.064774	-0.001977	-0.315430	0.095215	-0.784180	0.082890	-0.000845	0.057112	1.000000	0.000073	0.000324	-0.000010	0.537303	-0.112637	0.835834	0.204961	0.978770	0.000143	-0.818105	0.171237	0.548982
16832	0	8.294248	-0.104222	5.724392	-0.245063	-0.057221	0.262566	0.010722	0.061779	-0.006474	-0.317627	0.093018	-0.783936	0.082960	-0.001048	0.057218	1.000000	0.000054	0.000309	-0.000032	0.537795	-0.112806	0.835495	0.204908	0.978781	0.000256	-0.817795	0.171062	0.549499
16833	0	8.299827	-0.066076	5.747697	-0.245182	-0.017614	0.280236	0.012457	0.054395	-0.005638	-0.313232	0.097412	-0.791260	0.083014	-0.000667	0.057454	1.000000	0.000062	0.000272	-0.000028	0.538446	-0.112846	0.835070	0.204830	0.978797	0.000196	-0.817386	0.170942	0.550144
16834	0	8.268752	-0.064011	5.699181	-0.217046	-0.022581	0.227701	0.010929	0.047628	-0.006516	-0.313232	0.097412	-0.788818	0.082701	-0.000646	0.056972	1.000000	0.000055	0.000238	-0.000033	0.538822	-0.112992	0.834808	0.204776	0.978809	0.000311	-0.817152	0.170781	0.550541
16835	0	8.287981	-0.051954	5.702799	-0.199362	-0.013017	0.245907	0.011899	0.043350	-0.004454	-0.311035	0.097412	-0.781738	0.082892	-0.000525	0.057010	1.000000	0.000059	0.000217	-0.000022	0.539462	-0.112999	0.834393	0.204705	0.978824	0.000211	-0.816748	0.170690	0.551170
16836	0	8.264421	-0.008588	5.695409	-0.193680	0.029320	0.222253	0.003870	0.030536	-0.003241	-0.313232	0.093018	-0.788574	0.082653	-0.000088	0.056941	1.000000	0.000019	0.000153	-0.000016	0.539705	-0.113083	0.834225	0.204690	0.978827	0.000259	-0.816591	0.170618	0.551424
16837	0	8.262892	-0.008085	5.697627	-0.190128	0.030396	0.222318	0.005604	0.023152	-0.002397	-0.311035	0.095215	-0.788818	0.082636	-0.000083	0.056967	1.000000	0.000028	0.000116	-0.000012	0.540185	-0.113051	0.833918	0.204649	0.978835	0.000132	-0.816284	0.170589	0.551888
16838	0	8.250753	-0.039888	5.704514	-0.207103	0.000997	0.216027	0.004696	0.013584	-0.001375	-0.313232	0.095215	-0.791016	0.082511	-0.000401	0.057040	1.000000	0.000023	0.000068	-0.000007	0.540293	-0.113088	0.833843	0.204618	0.978842	0.000170	-0.816220	0.170527	0.552001
16839	0	8.271867	-0.028746	5.705402	-0.188551	0.010248	0.234231	0.005172	0.011089	0.003641	-0.315430	0.090820	-0.793213	0.082722	-0.000287	0.057049	1.000000	0.000026	0.000055	0.000018	0.540757	-0.112990	0.833556	0.204561	0.978854	-0.000021	-0.815927	0.170525	0.552435
16840	0	8.293413	-0.017794	5.705666	-0.174404	0.018483	0.252345	0.005029	-0.001586	0.003444	-0.315430	0.095215	-0.786377	0.082934	-0.000178	0.057057	1.000000	0.000025	-0.000008	0.000017	0.540751	-0.112953	0.833565	0.204502	0.978866	-0.000022	-0.815946	0.170477	0.552422
16841	0	8.352388	-0.026882	5.662743	-0.104842	-0.003233	0.277841	0.002244	-0.003464	0.006740	-0.313232	0.095215	-0.791016	0.083523	-0.000267	0.056629	1.000000	0.000011	-0.000017	0.000034	0.541124	-0.112814	0.833341	0.204458	0.978875	-0.000247	-0.815709	0.170517	0.552759
16842	0	8.380627	-0.027984	5.715293	-0.132897	0.001754	0.330419	0.002114	-0.002447	0.001893	-0.311279	0.099609	-0.788818	0.083806	-0.000280	0.057154	1.000000	0.000011	-0.000012	0.000009	0.541108	-0.112792	0.833355	0.204431	0.978881	-0.000251	-0.815727	0.170499	0.552738
16843	0	8.394170	-0.000638	5.685764	-0.091305	0.023204	0.325415	-0.002020	-0.004985	0.002075	-0.313232	0.093018	-0.788574	0.083940	-0.000005	0.056860	1.000000	-0.000010	-0.000025	0.000010	0.541477	-0.112676	0.833131	0.204429	0.978881	-0.000477	-0.815482	0.170574	0.553076
16844	0	8.429111	-0.015889	5.666777	-0.060277	0.001320	0.344029	-0.002915	-0.000861	-0.001550	-0.313232	0.095215	-0.793457	0.084291	-0.000159	0.056668	1.000000	-0.000015	-0.000004	-0.000008	0.541467	-0.112690	0.833136	0.204461	0.978874	-0.000480	-0.815481	0.170604	0.553069
16845	0	8.418121	-0.047973	5.671991	-0.072372	-0.027415	0.337808	0.002331	-0.002906	-0.002784	-0.311035	0.095215	-0.791016	0.084180	-0.000482	0.056721	1.000000	0.000012	-0.000015	-0.000014	0.541837	-0.112667	0.832898	0.204474	0.978872	-0.000606	-0.815232	0.170634	0.553426
16846	0	8.415935	-0.042984	5.695770	-0.092051	-0.018456	0.349143	-0.000274	0.001324	-0.001728	-0.313232	0.095215	-0.793457	0.084160	-0.000430	0.056957	1.000000	-0.000001	0.000007	-0.000009	0.541844	-0.112686	0.832891	0.204485	0.978869	-0.000593	-0.815225	0.170635	0.553437
16847	0	8.394261	-0.053658	5.695694	-0.101176	-0.025955	0.331104	0.001602	-0.006367	-0.004000	-0.311035	0.097412	-0.788818	0.083941	-0.000539	0.056960	1.000000	0.000008	-0.000032	-0.000020	0.542197	-0.112663	0.832664	0.204510	0.978864	-0.000724	-0.814984	0.170680	0.553777
16848	0	8.364333	-0.047714	5.666184	-0.092870	-0.021997	0.289830	-0.001385	-0.007074	-0.003992	-0.315430	0.090820	-0.788574	0.083641	-0.000478	0.056665	1.000000	-0.000007	-0.000035	-0.000020	0.542131	-0.112690	0.832703	0.204542	0.978857	-0.000698	-0.815019	0.170702	0.553719
16849	0	8.384427	-0.031666	5.689147	-0.094175	-0.004130	0.319298	-0.002041	-0.010688	-0.006767	-0.315674	0.099609	-0.791260	0.083841	-0.000319	0.056896	1.000000	-0.000010	-0.000053	-0.000034	0.542374	-0.112686	0.832546	0.204600	0.978845	-0.000802	-0.814843	0.170774	0.553955
16850	0	8.352473	-0.020966	5.683184	-0.105557	0.008786	0.289372	-0.000692	-0.010028	-0.003654	-0.311035	0.097412	-0.786377	0.083522	-0.000211	0.056836	1.000000	-0.000003	-0.000050	-0.000018	0.542285	-0.112704	0.832601	0.204625	0.978840	-0.000775	-0.814896	0.170791	0.553872
16851	0	8.320554	-0.010510	5.677171	-0.112562	0.022795	0.259493	-0.003404	-0.012059	-0.001916	-0.317871	0.095215	-0.788818	0.083202	-0.000105	0.056777	1.000000	-0.000017	-0.000060	-0.000010	0.542548	-0.112594	0.832445	0.204631	0.978839	-0.000974	-0.814719	0.170872	0.554107
16852	0	8.353636	-0.020873	5.681474	-0.101162	0.009881	0.289416	-0.001529	-0.006768	-0.000874	-0.313232	0.097412	-0.788818	0.083534	-0.000209	0.056818	1.000000	-0.000008	-0.000034	-0.000004	0.542491	-0.112591	0.832482	0.204648	0.978835	-0.000975	-0.814753	0.170895	0.554051
16853	0	8.364988	0.011421	5.675706	-0.079884	0.040086	0.295666	0.002187	-0.002599	0.000333	-0.313232	0.095215	-0.791016	0.083649	0.000114	0.056758	1.000000	0.000011	-0.000013	0.000002	0.542825	-0.112511	0.832276	0.204616	0.978842	-0.001130	-0.814539	0.170911	0.554361
16854	0	8.375894	-0.009801	5.680679	-0.082678	0.018930	0.307521	0.003955	-0.003569	0.002057	-0.315430	0.095215	-0.786377	0.083758	-0.000098	0.056808	1.000000	0.000020	-0.000018	0.000010	0.542800	-0.112484	0.832295	0.204573	0.978851	-0.001126	-0.814566	0.170876	0.554331
16855	0	8.408670	-0.020284	5.685426	-0.067228	0.006458	0.337467	-0.000597	-0.004478	0.003630	-0.317871	0.097412	-0.786377	0.084085	-0.000201	0.056856	1.000000	-0.000003	-0.000022	0.000018	0.543102	-0.112404	0.832109	0.204557	0.978854	-0.001283	-0.814369	0.170910	0.554611
16856	0	8.419600	-0.041702	5.690360	-0.070020	-0.014697	0.349324	0.002187	-0.002600	0.000333	-0.315430	0.095215	-0.784180	0.084195	-0.000417	0.056905	1.000000	0.000011	-0.000013	0.000002	0.543081	-0.112396	0.832124	0.204537	0.978858	-0.001274	-0.814388	0.170892	0.554589
16857	0	8.452123	-0.052025	5.695479	-0.055497	-0.026921	0.379259	0.000729	0.003461	0.001216	-0.315430	0.090820	-0.786133	0.084522	-0.000520	0.056953	1.000000	0.000004	0.000017	0.000006	0.543368	-0.112314	0.831947	0.204489	0.978868	-0.001409	-0.814208	0.170890	0.554853
16858	0	8.451773	-0.051898	5.695999	-0.055508	-0.026915	0.379259	0.004241	0.008799	-0.000864	-0.313477	0.099609	-0.793457	0.084520	-0.000521	0.056956	1.000000	0.000021	0.000044	-0.000004	0.543437	-0.112338	0.831899	0.204460	0.978874	-0.001379	-0.814170	0.170839	0.554925
16859	0	8.416341	-0.036445	5.715744	-0.082572	-0.004603	0.360759	0.002926	0.014553	-0.003100	-0.313232	0.097412	-0.791260	0.084168	-0.000367	0.057151	1.000000	0.000015	0.000073	-0.000015	0.543877	-0.112362	0.831608	0.204460	0.978874	-0.001459	-0.813876	0.170825	0.555360
16860	0	8.371702	-0.057831	5.717511	-0.111030	-0.021095	0.324664	0.003106	0.020661	-0.005341	-0.313232	0.095215	-0.795654	0.083723	-0.000581	0.057166	1.000000	0.000016	0.000103	-0.000027	0.544033	-0.112449	0.831494	0.204464	0.978873	-0.001398	-0.813770	0.170772	0.555531
16861	0	8.383934	-0.029730	5.689885	-0.069480	-0.000123	0.319499	-0.002378	0.017462	-0.008272	-0.308594	0.093018	-0.781738	0.083844	-0.000300	0.056892	1.000000	-0.000012	0.000087	-0.000041	0.544559	-0.112527	0.831140	0.204547	0.978856	-0.001493	-0.813398	0.170820	0.556061
16862	0	8.313350	0.000932	5.728866	-0.131684	0.043630	0.282482	0.000465	0.018476	-0.005163	-0.313232	0.095215	-0.788818	0.083139	0.000007	0.057281	1.000000	0.000002	0.000092	-0.000026	0.544698	-0.112609	0.831038	0.204572	0.978850	-0.001448	-0.813299	0.170796	0.556214
16863	0	8.320900	-0.015044	5.759317	-0.151699	0.031475	0.305778	-0.001611	0.014355	-0.009494	-0.315674	0.097412	-0.798096	0.083213	-0.000154	0.057587	1.000000	-0.000008	0.000072	-0.000047	0.544994	-0.112717	0.830829	0.204625	0.978839	-0.001430	-0.813087	0.170788	0.556526
16864	0	8.313460	-0.056173	5.718225	-0.129434	-0.015859	0.276805	-0.004945	0.015124	-0.009655	-0.313477	0.099609	-0.791260	0.083139	-0.000564	0.057176	1.000000	-0.000025	0.000076	-0.000048	0.545096	-0.112837	0.830745	0.204719	0.978820	-0.001377	-0.812995	0.170820	0.556651
16865	0	8.256006	-0.051598	5.738307	-0.169558	-0.001416	0.240357	-0.001756	0.014662	-0.006376	-0.315674	0.097412	-0.786377	0.082564	-0.000518	0.057377	1.000000	-0.000009	0.000073	-0.000032	0.545634	-0.112856	0.830390	0.204767	0.978810	-0.001521	-0.812622	0.170866	0.557181
16866	0	8.309605	-0.050414	5.744409	-0.143834	-0.006059	0.288282	0.000504	0.011910	-0.007600	-0.310791	0.093018	-0.786377	0.083099	-0.000507	0.057439	1.000000	0.000003	0.000060	-0.000038	0.545715	-0.112951	0.830324	0.204805	0.978802	-0.001456	-0.812558	0.170849	0.557279
16867	0	8.278713	-0.044232	5.716310	-0.132962	-0.001854	0.247012	0.001125	0.009109	-0.005702	-0.313232	0.095215	-0.788818	0.082790	-0.000445	0.057159	1.000000	0.000006	0.000046	-0.000029	0.546003	-0.112989	0.830129	0.204808	0.978801	-0.001484	-0.812363	0.170827	0.557570
16868	0	8.321731	-0.021762	5.716956	-0.104467	0.014661	0.283061	0.000431	0.012063	-0.006042	-0.315674	0.097412	-0.788818	0.083221	-0.000220	0.057165	1.000000	0.000002	0.000060	-0.000030	0.546088	-0.113068	0.830062	0.204838	0.978795	-0.001432	-0.812299	0.170810	0.557669
16869	0	8.355798	-0.036430	5.699328	-0.069915	-0.006740	0.301565	-0.000062	0.013846	-0.003093	-0.311279	0.099609	-0.791260	0.083562	-0.000366	0.056987	1.000000	-0.000000	0.000069	-0.000015	0.546478	-0.113075	0.829805	0.204839	0.978794	-0.001522	-0.812036	0.170809	0.558051
16870	0	8.328862	-0.037742	5.748003	-0.123436	0.002955	0.306387	-0.001661	0.007230	-0.002407	-0.313232	0.095215	-0.793457	0.083291	-0.000378	0.057477	1.000000	-0.000008	0.000036	-0.000012	0.546530	-0.113110	0.829765	0.204867	0.978789	-0.001513	-0.811994	0.170818	0.558110
16871	0	8.367706	-0.062180	5.682341	-0.048651	-0.036359	0.302039	0.002326	0.010076	0.000531	-0.313232	0.097412	-0.791260	0.083680	-0.000622	0.056819	1.000000	0.000012	0.000050	0.000003	0.546975	-0.113081	0.829476	0.204843	0.978794	-0.001641	-0.811700	0.170810	0.558540
16872	0	8.340788	-0.063584	5.730976	-0.102165	-0.026660	0.306884	0.002326	0.010076	0.000530	-0.308838	0.097412	-0.786621	0.083411	-0.000636	0.057306	1.000000	0.000012	0.000050	0.000003	0.547057	-0.113092	0.829420	0.204822	0.978798	-0.001634	-0.811650	0.170778	0.558622
16873	0	8.377295	-0.083116	5.689287	-0.048116	-0.056952	0.313931	0.003966	0.010125	-0.002591	-0.313232	0.097412	-0.793457	0.083776	-0.000833	0.056889	1.000000	0.000020	0.000051	-0.000013	0.547407	-0.113077	0.829192	0.204780	0.978806	-0.001710	-0.811425	0.170738	0.558961
16874	0	8.376679	-0.082676	5.690200	-0.048118	-0.056930	0.313931	0.003620	0.011601	-0.002761	-0.313232	0.095215	-0.786377	0.083770	-0.000829	0.056897	1.000000	0.000018	0.000058	-0.000014	0.547495	-0.113122	0.829127	0.204767	0.978809	-0.001669	-0.811369	0.170692	0.559057
16875	0	8.360819	-0.051461	5.733474	-0.081445	-0.017295	0.324952	0.004313	0.008648	-0.002422	-0.315674	0.097412	-0.786377	0.083611	-0.000517	0.057331	1.000000	0.000022	0.000043	-0.000012	0.547819	-0.113112	0.828915	0.204738	0.978815	-0.001742	-0.811157	0.170664	0.559372
16876	0	8.332154	-0.050219	5.681625	-0.053752	-0.022311	0.272192	0.004346	0.015062	-0.001546	-0.308838	0.095215	-0.786377	0.083326	-0.000504	0.056810	1.000000	0.000022	0.000075	-0.000008	0.547938	-0.113152	0.828831	0.204713	0.978821	-0.001707	-0.811084	0.170608	0.559497
16877	0	8.339982	-0.066457	5.711648	-0.074051	-0.033902	0.295527	0.003093	0.006970	-0.000690	-0.313232	0.095215	-0.788818	0.083402	-0.000666	0.057114	1.000000	0.000015	0.000035	-0.000003	0.548165	-0.113105	0.828687	0.204662	0.978831	-0.001783	-0.810943	0.170578	0.559709
16878	0	8.317812	-0.077084	5.712274	-0.088338	-0.042131	0.277528	0.005007	0.005695	-0.002082	-0.315430	0.093018	-0.788574	0.083180	-0.000773	0.057120	1.000000	0.000025	0.000028	-0.000010	0.548206	-0.113134	0.828656	0.204634	0.978837	-0.001741	-0.810922	0.170526	0.559755
16879	0	8.317453	-0.076740	5.712802	-0.086022	-0.041853	0.277549	0.007773	0.006864	0.002589	-0.317871	0.099609	-0.786621	0.083177	-0.000769	0.057125	1.000000	0.000039	0.000034	0.000013	0.548456	-0.113100	0.828495	0.204562	0.978852	-0.001792	-0.810772	0.170462	0.559993
16880	0	8.316990	-0.076493	5.713479	-0.086039	-0.041827	0.277549	0.005660	0.009309	0.000693	-0.315430	0.095215	-0.793457	0.083173	-0.000766	0.057131	1.000000	0.000028	0.000047	0.000003	0.548531	-0.113108	0.828444	0.204514	0.978862	-0.001768	-0.810733	0.170399	0.560068
16881	0	8.305784	-0.054917	5.708901	-0.080716	-0.019590	0.265692	0.009267	0.007219	0.002586	-0.306641	0.099854	-0.788818	0.083060	-0.000551	0.057086	1.000000	0.000046	0.000036	0.000013	0.548808	-0.112995	0.828276	0.204407	0.978884	-0.001896	-0.810572	0.170346	0.560317
16882	0	8.307712	-0.059395	5.685592	-0.061140	-0.028527	0.254239	0.008120	0.005387	0.002759	-0.311035	0.097412	-0.788818	0.083079	-0.000595	0.056854	1.000000	0.000041	0.000027	0.000014	0.548855	-0.112976	0.828248	0.204328	0.978901	-0.001876	-0.810561	0.170264	0.560358
16883	0	8.326539	-0.096917	5.720486	-0.083306	-0.060861	0.289489	0.012527	0.006605	0.004309	-0.311035	0.097412	-0.791260	0.083267	-0.000971	0.057202	1.000000	0.000063	0.000033	0.000022	0.549160	-0.112847	0.828064	0.204175	0.978932	-0.001998	-0.810393	0.170167	0.560631
16884	0	8.361425	-0.058263	5.691621	-0.032405	-0.032114	0.302118	0.011578	0.003604	0.007771	-0.308838	0.099854	-0.791260	0.083615	-0.000583	0.056915	1.000000	0.000058	0.000018	0.000039	0.549203	-0.112775	0.828045	0.204041	0.978960	-0.002002	-0.810397	0.170054	0.560659
16885	0	8.337259	-0.064539	5.715643	-0.062989	-0.030342	0.295613	0.009631	-0.001534	0.008289	-0.311035	0.095215	-0.788818	0.083372	-0.000645	0.057157	1.000000	0.000048	-0.000008	0.000041	0.549481	-0.112598	0.827885	0.203906	0.978988	-0.002187	-0.810243	0.170013	0.560894
16886	0	8.372206	-0.079649	5.696823	-0.031827	-0.052146	0.314021	0.011546	-0.002810	0.006897	-0.313232	0.097412	-0.791260	0.083721	-0.000797	0.056969	1.000000	0.000058	-0.000014	0.000034	0.549471	-0.112523	0.827901	0.203778	0.979015	-0.002184	-0.810282	0.169908	0.560870
16887	0	8.359397	-0.053627	5.715071	-0.046278	-0.021271	0.313607	0.015004	-0.004593	0.011909	-0.313232	0.095215	-0.791016	0.083593	-0.000536	0.057153	1.000000	0.000075	-0.000023	0.000060	0.549656	-0.112335	0.827804	0.203588	0.979054	-0.002321	-0.810204	0.169806	0.561013
16888	0	8.362029	-0.058463	5.690732	-0.026690	-0.030190	0.302141	0.015771	-0.007700	0.010692	-0.315674	0.097412	-0.788818	0.083618	-0.000585	0.056910	1.000000	0.000079	-0.000039	0.000053	0.549614	-0.112215	0.827848	0.203405	0.979092	-0.002326	-0.810278	0.169666	0.560948
16889	0	8.364756	-0.063277	5.666248	-0.005131	-0.038265	0.290679	0.014278	-0.008055	0.010694	-0.308838	0.095215	-0.786377	0.083645	-0.000632	0.056666	1.000000	0.000071	-0.000040	0.000053	0.549731	-0.112020	0.827796	0.203225	0.979129	-0.002461	-0.810244	0.169582	0.561023
16890	0	8.375950	-0.084495	5.670840	-0.007871	-0.059353	0.302574	0.017685	-0.008977	0.009299	-0.311035	0.097412	-0.793457	0.083757	-0.000846	0.056712	1.000000	0.000088	-0.000045	0.000046	0.549676	-0.111911	0.827848	0.203034	0.979169	-0.002444	-0.810329	0.169425	0.560947
16891	0	8.379032	-0.035528	5.635689	0.033858	-0.017044	0.285283	0.016993	-0.006024	0.008956	-0.317627	0.093018	-0.791016	0.083789	-0.000356	0.056359	1.000000	0.000085	-0.000030	0.000045	0.549841	-0.111753	0.827760	0.202846	0.979207	-0.002541	-0.810264	0.169305	0.561077
16892	0	8.361257	-0.053102	5.712355	-0.041959	-0.019473	0.313629	0.017176	0.000082	0.006709	-0.313232	0.097412	-0.788818	0.083613	-0.000533	0.057123	1.000000	0.000086	0.000000	0.000034	0.549854	-0.111685	0.827760	0.202674	0.979243	-0.002506	-0.810298	0.169144	0.561077
16893	0	8.368229	-0.067132	5.640663	0.018205	-0.045615	0.279212	0.015227	-0.005056	0.007230	-0.313232	0.097412	-0.791260	0.083681	-0.000673	0.056409	1.000000	0.000076	-0.000025	0.000036	0.549940	-0.111542	0.827722	0.202511	0.979277	-0.002584	-0.810281	0.169044	0.561132
16894	0	8.377025	-0.083083	5.669272	-0.004126	-0.057720	0.302586	0.023808	-0.007871	0.006166	-0.315674	0.097412	-0.788818	0.083768	-0.000835	0.056696	1.000000	0.000119	-0.000039	0.000031	0.549887	-0.111465	0.827768	0.202289	0.979323	-0.002507	-0.810373	0.168827	0.561065
16895	0	8.368978	-0.066079	5.639564	0.019735	-0.044249	0.279215	0.021675	-0.006128	0.012232	-0.313232	0.097412	-0.791260	0.083688	-0.000662	0.056398	1.000000	0.000108	-0.000031	0.000061	0.549989	-0.111225	0.827732	0.202042	0.979373	-0.002645	-0.810365	0.168691	0.561117
16896	0	8.391137	-0.054757	5.638941	0.034022	-0.035903	0.297178	0.023316	-0.006085	0.009110	-0.313232	0.097412	-0.786377	0.083910	-0.000550	0.056392	1.000000	0.000117	-0.000030	0.000046	0.549955	-0.111122	0.827769	0.201807	0.979422	-0.002596	-0.810446	0.168478	0.561064
16897	0	8.410986	-0.038452	5.662201	0.030033	-0.017319	0.326617	0.022970	-0.004608	0.008937	-0.317871	0.095215	-0.791016	0.084109	-0.000387	0.056624	1.000000	0.000115	-0.000023	0.000045	0.550042	-0.110913	0.827739	0.201564	0.979472	-0.002697	-0.810448	0.168326	0.561106
16898	0	8.402343	-0.074910	5.643532	0.032558	-0.055631	0.309085	0.024119	-0.002778	0.008760	-0.313232	0.097412	-0.795898	0.084023	-0.000752	0.056436	1.000000	0.000121	-0.000014	0.000044	0.550034	-0.110819	0.827757	0.201326	0.979521	-0.002641	-0.810513	0.168102	0.561080
16899	0	8.435408	-0.031164	5.637759	0.065689	-0.016826	0.333090	0.022279	-0.001655	0.008592	-0.317871	0.097412	-0.788818	0.084354	-0.000314	0.056378	1.000000	0.000111	-0.000008	0.000043	0.550179	-0.110656	0.827682	0.201126	0.979562	-0.002731	-0.810464	0.167971	0.561190
16900	0	8.439981	-0.040075	5.590058	0.104825	-0.034699	0.310130	0.025068	0.000217	0.005293	-0.311035	0.095215	-0.791016	0.084400	-0.000406	0.055900	1.000000	0.000125	0.000001	0.000026	0.550188	-0.110601	0.827684	0.200899	0.979608	-0.002642	-0.810514	0.167735	0.561189
16901	0	8.437722	-0.034553	5.613873	0.086094	-0.024515	0.321606	0.025121	-0.000635	0.011699	-0.313232	0.097412	-0.786377	0.084377	-0.000348	0.056139	1.000000	0.000126	-0.000003	0.000058	0.550275	-0.110389	0.827654	0.200636	0.979662	-0.002732	-0.810520	0.167561	0.561232
16902	0	8.453336	-0.011524	5.560816	0.142256	-0.012965	0.304689	0.019822	0.002266	0.006518	-0.317871	0.099609	-0.786621	0.084534	-0.000118	0.055607	1.000000	0.000099	0.000011	0.000033	0.550303	-0.110325	0.827645	0.200446	0.979701	-0.002683	-0.810548	0.167375	0.561246
16903	0	8.452811	-0.064540	5.571799	0.122277	-0.061587	0.310572	0.020095	0.000946	0.008249	-0.313232	0.097412	-0.793457	0.084528	-0.000648	0.055718	1.000000	0.000100	0.000005	0.000041	0.550308	-0.110079	0.827674	0.200226	0.979746	-0.002823	-0.810599	0.167275	0.561203
16904	0	8.450802	-0.005773	5.585043	0.122384	-0.001932	0.316173	0.019058	0.005376	0.007730	-0.313232	0.095215	-0.793457	0.084510	-0.000060	0.055848	1.000000	0.000095	0.000027	0.000039	0.550362	-0.110007	0.827648	0.200036	0.979785	-0.002790	-0.810609	0.167095	0.561241
16905	0	8.461148	-0.026538	5.590927	0.121117	-0.021990	0.328074	0.020280	0.007049	0.005993	-0.317627	0.093018	-0.791016	0.084613	-0.000269	0.055906	1.000000	0.000101	0.000035	0.000030	0.550544	-0.109896	0.827541	0.199883	0.979816	-0.002859	-0.810523	0.166985	0.561398
16906	0	8.404149	-0.021708	5.610254	0.075546	-0.008316	0.291736	0.017292	0.006342	0.006002	-0.315674	0.097412	-0.795898	0.084043	-0.000219	0.056100	1.000000	0.000086	0.000032	0.000030	0.550603	-0.109842	0.827509	0.199718	0.979849	-0.002823	-0.810524	0.166822	0.561445
16907	0	8.406057	-0.025821	5.586984	0.095549	-0.016278	0.280254	0.020501	0.006577	0.001317	-0.313232	0.095215	-0.784180	0.084062	-0.000263	0.055867	1.000000	0.000103	0.000033	0.000007	0.550688	-0.109776	0.827461	0.199581	0.979877	-0.002827	-0.810500	0.166702	0.561516
16908	0	8.386237	-0.040773	5.563716	0.100746	-0.033427	0.250826	0.016636	0.002722	0.003236	-0.311035	0.095215	-0.793457	0.083863	-0.000411	0.055636	1.000000	0.000083	0.000014	0.000016	0.550711	-0.109743	0.827450	0.199437	0.979907	-0.002772	-0.810520	0.166550	0.561532
16909	0	8.362068	-0.046276	5.587787	0.066965	-0.031760	0.244359	0.015759	-0.000427	0.005147	-0.317871	0.095215	-0.791016	0.083621	-0.000465	0.055878	1.000000	0.000079	-0.000002	0.000026	0.550727	-0.109618	0.827456	0.199290	0.979937	-0.002823	-0.810545	0.166458	0.561523
16910	0	8.384003	-0.034542	5.587483	0.081232	-0.023339	0.262308	0.019732	-0.003304	-0.000750	-0.310791	0.090820	-0.788574	0.083839	-0.000351	0.055876	1.000000	0.000099	-0.000017	-0.000004	0.550693	-0.109613	0.827479	0.199143	0.979967	-0.002718	-0.810604	0.166284	0.561490
16911	0	8.392674	-0.049794	5.616307	0.058561	-0.034927	0.285714	0.021844	-0.005746	0.001151	-0.317627	0.093018	-0.781738	0.083925	-0.000504	0.056165	1.000000	0.000109	-0.000029	0.000006	0.550617	-0.109548	0.827538	0.198960	0.980004	-0.002651	-0.810701	0.166107	0.561403
16912	0	8.369003	-0.054890	5.639647	0.024587	-0.034089	0.279244	0.017979	-0.009600	0.003072	-0.313232	0.093018	-0.788574	0.083687	-0.000553	0.056400	1.000000	0.000090	-0.000048	0.000015	0.550539	-0.109496	0.827597	0.198806	0.980035	-0.002587	-0.810791	0.165956	0.561316
16913	0	8.382921	-0.026690	5.609535	0.059601	-0.012832	0.273801	0.017780	-0.008439	-0.000219	-0.313232	0.097412	-0.786377	0.083827	-0.000272	0.056099	1.000000	0.000089	-0.000042	-0.000001	0.550341	-0.109396	0.827742	0.198630	0.980071	-0.002534	-0.810969	0.165809	0.561103
16914	0	8.387933	-0.035509	5.561196	0.098685	-0.030679	0.250856	0.016286	-0.008792	-0.000214	-0.313232	0.097412	-0.791260	0.083877	-0.000360	0.055616	1.000000	0.000081	-0.000044	-0.000001	0.550261	-0.109378	0.827798	0.198508	0.980096	-0.002453	-0.811053	0.165674	0.561021
16915	0	8.427048	-0.056331	5.618792	0.068416	-0.044900	0.315611	0.018929	-0.006610	-0.000400	-0.315430	0.095215	-0.788818	0.084269	-0.000569	0.056191	1.000000	0.000095	-0.000033	-0.000002	0.550201	-0.109260	0.827854	0.198420	0.980114	-0.002516	-0.811116	0.165647	0.560939
16916	0	8.395032	-0.045273	5.612820	0.056726	-0.031911	0.285734	0.015190	-0.011465	0.006373	-0.313477	0.099609	-0.791260	0.083947	-0.000454	0.056133	1.000000	0.000076	-0.000057	0.000032	0.550112	-0.109172	0.827924	0.198272	0.980144	-0.002497	-0.811212	0.165528	0.560835
16917	0	8.415253	-0.028879	5.635486	0.051411	-0.012805	0.315156	0.016904	-0.011587	0.001692	-0.313232	0.095215	-0.784180	0.084149	-0.000293	0.056360	1.000000	0.000085	-0.000058	0.000008	0.550008	-0.109031	0.828012	0.198207	0.980157	-0.002593	-0.811298	0.165544	0.560705
16918	0	8.418196	-0.032869	5.610654	0.070909	-0.021632	0.303688	0.018817	-0.012869	0.000302	-0.315430	0.093018	-0.791016	0.084178	-0.000334	0.056112	1.000000	0.000094	-0.000064	0.000002	0.549896	-0.108999	0.828090	0.198064	0.980186	-0.002506	-0.811409	0.165392	0.560589
16919	0	8.440742	-0.021051	5.609398	0.084493	-0.012314	0.321642	0.018672	-0.012551	0.003418	-0.317627	0.095215	-0.784180	0.084404	-0.000214	0.056099	1.000000	0.000093	-0.000063	0.000017	0.549738	-0.108870	0.828212	0.197910	0.980217	-0.002514	-0.811554	0.165294	0.560409
16920	0	8.430704	0.001020	5.603013	0.087122	0.008988	0.309706	0.019821	-0.010722	0.003236	-0.315430	0.095215	-0.793457	0.084304	0.000006	0.056035	1.000000	0.000099	-0.000054	0.000016	0.549649	-0.108812	0.828279	0.197743	0.980251	-0.002446	-0.811655	0.165131	0.560311
16921	0	8.411220	-0.067458	5.589587	0.071655	-0.057451	0.286235	0.019476	-0.009246	0.003061	-0.315430	0.093018	-0.788574	0.084110	-0.000679	0.055900	1.000000	0.000097	-0.000046	0.000015	0.549494	-0.108680	0.828399	0.197620	0.980276	-0.002481	-0.811790	0.165071	0.560133
16922	0	8.407722	-0.003208	5.625372	0.052150	0.011290	0.303229	0.018127	-0.009917	-0.000050	-0.317871	0.095215	-0.795654	0.084074	-0.000037	0.056258	1.000000	0.000091	-0.000050	-0.000000	0.549404	-0.108655	0.828462	0.197485	0.980303	-0.002395	-0.811884	0.164925	0.560040
16923	0	8.410058	-0.060716	5.611789	0.051556	-0.047226	0.297706	0.017982	-0.009598	0.003066	-0.319824	0.090820	-0.790771	0.084098	-0.000611	0.056122	1.000000	0.000090	-0.000048	0.000015	0.549291	-0.108559	0.828549	0.197386	0.980323	-0.002412	-0.811984	0.164869	0.559911
16924	0	8.412848	-0.064879	5.587167	0.071031	-0.056038	0.286247	0.016560	-0.010111	0.001514	-0.315430	0.095215	-0.793457	0.084126	-0.000653	0.055876	1.000000	0.000083	-0.000051	0.000008	0.549202	-0.108519	0.828614	0.197256	0.980349	-0.002349	-0.812076	0.164739	0.559815
16925	0	8.400639	-0.037811	5.604480	0.053430	-0.025067	0.285772	0.014752	-0.015565	-0.001063	-0.320068	0.095215	-0.795654	0.084002	-0.000383	0.056051	1.000000	0.000074	-0.000078	-0.000005	0.549007	-0.108458	0.828751	0.197185	0.980364	-0.002326	-0.812225	0.164694	0.559613
16926	0	8.434009	-0.047294	5.608422	0.064903	-0.037684	0.315664	0.017597	-0.014539	0.002038	-0.313477	0.099609	-0.793457	0.084336	-0.000477	0.056090	1.000000	0.000088	-0.000073	0.000010	0.548882	-0.108405	0.828841	0.197044	0.980392	-0.002261	-0.812344	0.164560	0.559480
16927	0	8.426471	-0.030284	5.577806	0.087502	-0.023661	0.292264	0.013805	-0.018550	0.002410	-0.320068	0.095215	-0.788818	0.084260	-0.000306	0.055786	1.000000	0.000069	-0.000093	0.000012	0.548740	-0.108289	0.828950	0.197093	0.980382	-0.002399	-0.812427	0.164697	0.559318
16928	0	8.457697	-0.034989	5.605412	0.079393	-0.027239	0.333615	0.017598	-0.014539	0.002036	-0.312988	0.090820	-0.793213	0.084573	-0.000354	0.056060	1.000000	0.000088	-0.000073	0.000010	0.548615	-0.108235	0.829039	0.196953	0.980410	-0.002336	-0.812546	0.164564	0.559185
16929	0	8.458480	-0.034397	5.604234	0.078805	-0.026402	0.333622	0.014120	-0.013448	0.004992	-0.319824	0.090820	-0.793213	0.084581	-0.000346	0.056048	1.000000	0.000071	-0.000067	0.000025	0.548462	-0.108121	0.829156	0.196858	0.980429	-0.002369	-0.812672	0.164525	0.559013
16930	0	8.424435	-0.018499	5.621794	0.047515	-0.004351	0.315182	0.016907	-0.011587	0.001684	-0.317871	0.097412	-0.793457	0.084241	-0.000189	0.056223	1.000000	0.000085	-0.000058	0.000008	0.548360	-0.108075	0.829229	0.196726	0.980456	-0.002307	-0.812773	0.164396	0.558904
16931	0	8.470373	-0.054261	5.607863	0.075246	-0.046094	0.345585	0.018788	-0.006292	0.002700	-0.315674	0.097412	-0.788818	0.084702	-0.000547	0.056081	1.000000	0.000094	-0.000031	0.000013	0.548246	-0.107992	0.829315	0.196652	0.980471	-0.002328	-0.812868	0.164363	0.558776
16932	0	8.436044	-0.038377	5.625859	0.043952	-0.024035	0.327140	0.014507	-0.008505	0.006015	-0.313232	0.093018	-0.797852	0.084358	-0.000385	0.056262	1.000000	0.000073	-0.000043	0.000030	0.548177	-0.107908	0.829372	0.196516	0.980498	-0.002317	-0.812947	0.164255	0.558692
16933	0	8.406161	-0.032341	5.596228	0.052603	-0.018965	0.285789	0.017437	-0.006967	-0.000410	-0.317627	0.093018	-0.788574	0.084060	-0.000328	0.055965	1.000000	0.000087	-0.000035	-0.000002	0.548158	-0.107878	0.829389	0.196527	0.980496	-0.002356	-0.812958	0.164288	0.558667
16934	0	8.415302	0.005547	5.614025	0.049970	0.019714	0.303227	0.015769	-0.000419	0.005119	-0.317871	0.095215	-0.788818	0.084153	0.000053	0.056140	1.000000	0.000079	-0.000002	0.000026	0.548153	-0.107816	0.829400	0.196386	0.980524	-0.002331	-0.812995	0.164161	0.558651
16935	0	8.382449	-0.037101	5.619788	0.017374	-0.016672	0.279303	0.013542	-0.004237	0.003929	-0.317627	0.093018	-0.791016	0.083823	-0.000373	0.056200	1.000000	0.000068	-0.000021	0.000020	0.548020	-0.107694	0.829504	0.196315	0.980538	-0.002395	-0.813102	0.164157	0.558496
16936	0	8.406726	-0.030632	5.595388	0.051153	-0.017148	0.285800	0.015109	-0.004046	0.002362	-0.317627	0.093018	-0.788574	0.084066	-0.000310	0.055956	1.000000	0.000076	-0.000020	0.000012	0.547979	-0.107653	0.829536	0.196196	0.980562	-0.002352	-0.813158	0.164040	0.558449
16937	0	8.369932	-0.009771	5.637575	-0.000591	0.014706	0.278789	0.012852	-0.001285	0.003577	-0.317627	0.093018	-0.793213	0.083699	-0.000100	0.056376	1.000000	0.000064	-0.000006	0.000018	0.547887	-0.107561	0.829608	0.196121	0.980577	-0.002387	-0.813238	0.164011	0.558341
16938	0	8.380771	-0.030493	5.642805	-0.003467	-0.006144	0.290751	0.015109	-0.004046	0.002362	-0.317627	0.093018	-0.791016	0.083807	-0.000308	0.056430	1.000000	0.000076	-0.000020	0.000012	0.547847	-0.107520	0.829641	0.196002	0.980601	-0.002344	-0.813294	0.163896	0.558293
16939	0	8.381051	-0.029879	5.642394	-0.004005	-0.005228	0.290751	0.013960	-0.005874	0.002547	-0.317627	0.090820	-0.786133	0.083809	-0.000302	0.056426	1.000000	0.000070	-0.000029	0.000013	0.547751	-0.107455	0.829712	0.195956	0.980610	-0.002366	-0.813370	0.163883	0.558186
16940	0	8.403314	-0.018610	5.641496	0.010180	0.003341	0.308695	0.011519	-0.009209	0.006032	-0.320068	0.095215	-0.795654	0.084031	-0.000187	0.056419	1.000000	0.000058	-0.000046	0.000030	0.547675	-0.107369	0.829774	0.195846	0.980632	-0.002375	-0.813447	0.163809	0.558095
16941	0	8.384188	-0.034268	5.617211	0.014390	-0.012981	0.279313	0.013085	-0.009018	0.004465	-0.315674	0.097412	-0.795898	0.083839	-0.000344	0.056176	1.000000	0.000065	-0.000045	0.000022	0.547516	-0.107262	0.829892	0.195781	0.980645	-0.002419	-0.813570	0.163801	0.557918
16942	0	8.406523	-0.022780	5.616199	0.028565	-0.004406	0.297258	0.016217	-0.008636	0.001331	-0.320068	0.095215	-0.795654	0.084063	-0.000232	0.056166	1.000000	0.000081	-0.000043	0.000007	0.547434	-0.107223	0.829951	0.195659	0.980669	-0.002362	-0.813654	0.163681	0.557831
16943	0	8.426728	-0.006299	5.638874	0.023664	0.014673	0.326638	0.010512	-0.011360	0.003101	-0.320068	0.099609	-0.795898	0.084264	-0.000065	0.056394	1.000000	0.000053	-0.000057	0.000016	0.547352	-0.107162	0.830013	0.195793	0.980642	-0.002506	-0.813677	0.163882	0.557738
16944	0	8.418419	-0.043188	5.619856	0.026032	-0.023501	0.309229	0.009017	-0.011713	0.003110	-0.317627	0.093018	-0.793213	0.084181	-0.000433	0.056203	1.000000	0.000045	-0.000059	0.000016	0.547250	-0.107100	0.830089	0.195721	0.980656	-0.002506	-0.813763	0.163837	0.557626
16945	0	8.440906	-0.031995	5.618602	0.040237	-0.013401	0.327175	0.010512	-0.011360	0.003101	-0.317627	0.093018	-0.791016	0.084406	-0.000322	0.056191	1.000000	0.000053	-0.000057	0.000016	0.547131	-0.107025	0.830177	0.195838	0.980633	-0.002646	-0.813816	0.164028	0.557494
16946	0	8.443602	-0.036757	5.594047	0.059681	-0.022160	0.315742	0.009405	-0.006770	0.004129	-0.315430	0.095215	-0.793457	0.084434	-0.000368	0.055943	1.000000	0.000047	-0.000034	0.000021	0.547070	-0.106960	0.830225	0.195759	0.980649	-0.002654	-0.813875	0.163976	0.557422
16947	0	8.441825	-0.031338	5.617225	0.040217	-0.012008	0.327177	0.012882	-0.007866	0.001170	-0.320068	0.095215	-0.781738	0.084416	-0.000317	0.056176	1.000000	0.000064	-0.000039	0.000006	0.547003	-0.106924	0.830274	0.195790	0.980642	-0.002702	-0.813913	0.164038	0.557349
16948	0	8.452761	-0.052314	5.622320	0.037322	-0.032796	0.339156	0.006459	-0.001056	0.004989	-0.317871	0.095215	-0.791016	0.084527	-0.000523	0.056224	1.000000	0.000032	-0.000005	0.000025	0.546992	-0.106860	0.830290	0.195731	0.980654	-0.002734	-0.813935	0.164009	0.557325
16949	0	8.422948	0.006626	5.582029	0.063675	0.023160	0.291794	0.008165	-0.001190	0.000306	-0.313232	0.095215	-0.791016	0.084229	0.000064	0.055821	1.000000	0.000041	-0.000006	0.000002	0.546848	-0.106752	0.830398	0.195738	0.980652	-0.002832	-0.814029	0.164090	0.557163
16950	0	8.446581	-0.040350	5.569065	0.077573	-0.027766	0.304331	0.008307	-0.001515	-0.002810	-0.317627	0.093018	-0.786377	0.084465	-0.000407	0.055691	1.000000	0.000042	-0.000008	-0.000014	0.546816	-0.106763	0.830418	0.195707	0.980658	-0.002791	-0.814058	0.164045	0.557134
16951	0	8.463980	-0.018811	5.616464	0.052679	-0.000197	0.345128	0.005360	0.004199	-0.001950	-0.319824	0.093018	-0.793213	0.084641	-0.000190	0.056163	1.000000	0.000027	0.000021	-0.000010	0.546830	-0.106758	0.830409	0.195787	0.980642	-0.002854	-0.814030	0.164144	0.557147
16952	0	8.433530	-0.013123	5.587659	0.060574	0.003839	0.303777	0.004830	-0.000419	0.000148	-0.315430	0.095215	-0.786377	0.084335	-0.000133	0.055877	1.000000	0.000024	-0.000002	0.000001	0.546814	-0.106742	0.830422	0.195769	0.980646	-0.002858	-0.814045	0.164133	0.557127
16953	0	8.435793	-0.017690	5.563752	0.079550	-0.004047	0.292356	0.005387	-0.002382	-0.004349	-0.320068	0.095215	-0.788818	0.084357	-0.000180	0.055639	1.000000	0.000027	-0.000012	-0.000022	0.546725	-0.106742	0.830481	0.195856	0.980628	-0.002897	-0.814084	0.164238	0.557040
16954	0	8.433774	-0.012126	5.587293	0.059839	0.005360	0.303781	0.005592	-0.003533	-0.001056	-0.317627	0.090820	-0.790771	0.084337	-0.000123	0.055874	1.000000	0.000028	-0.000018	-0.000005	0.546680	-0.106731	0.830511	0.195839	0.980632	-0.002887	-0.814118	0.164225	0.556994
16955	0	8.436102	-0.016887	5.563285	0.078365	-0.002805	0.292366	0.000416	-0.001639	-0.001381	-0.322266	0.093018	-0.791016	0.084361	-0.000170	0.055634	1.000000	0.000002	-0.000008	-0.000007	0.546571	-0.106698	0.830587	0.195900	0.980620	-0.002942	-0.814176	0.164320	0.556881
16956	0	8.458111	-0.005727	5.562728	0.092544	0.005850	0.310308	0.002672	-0.004401	-0.002595	-0.317871	0.097412	-0.788818	0.084580	-0.000059	0.055629	1.000000	0.000013	-0.000022	-0.000013	0.546517	-0.106701	0.830623	0.195915	0.980616	-0.002936	-0.814209	0.164336	0.556827
16957	0	8.444901	-0.032495	5.592113	0.054591	-0.012905	0.315787	0.001636	0.000027	-0.003126	-0.317871	0.099609	-0.781982	0.084449	-0.000327	0.055921	1.000000	0.000008	0.000000	-0.000016	0.546391	-0.106673	0.830709	0.196048	0.980590	-0.003029	-0.814262	0.164514	0.556699
16958	0	8.447083	-0.037172	5.568326	0.074019	-0.021632	0.304372	0.001636	0.000027	-0.003126	-0.319824	0.090820	-0.788574	0.084471	-0.000373	0.055683	1.000000	0.000008	0.000000	-0.000016	0.546371	-0.106688	0.830721	0.196075	0.980584	-0.003026	-0.814269	0.164537	0.556681
16959	0	8.425202	-0.047727	5.568694	0.058115	-0.028320	0.286445	0.001290	0.001503	-0.003303	-0.320068	0.095215	-0.793457	0.084252	-0.000479	0.055686	1.000000	0.000006	0.000008	-0.000017	0.546237	-0.106628	0.830816	0.196157	0.980568	-0.003120	-0.814339	0.164674	0.556538
16960	0	8.444720	-0.031641	5.592391	0.052693	-0.010550	0.315799	0.000733	0.003467	0.001194	-0.322266	0.093018	-0.791016	0.084448	-0.000316	0.055922	1.000000	0.000004	0.000017	0.000006	0.546252	-0.106605	0.830809	0.196169	0.980565	-0.003159	-0.814326	0.164704	0.556548
16961	0	8.435941	-0.015416	5.563534	0.073780	0.002570	0.292401	0.000113	0.006257	-0.000718	-0.319824	0.090820	-0.795654	0.084361	-0.000154	0.055633	1.000000	0.000001	0.000031	-0.000004	0.546184	-0.106589	0.830856	0.196281	0.980542	-0.003238	-0.814344	0.164850	0.556478
16962	0	8.433421	-0.010291	5.587830	0.054034	0.012033	0.303808	-0.001312	0.005741	-0.002266	-0.317627	0.093018	-0.786377	0.084336	-0.000103	0.055876	1.000000	-0.000007	0.000029	-0.000011	0.546210	-0.106604	0.830837	0.196329	0.980533	-0.003259	-0.814316	0.164898	0.556506
16963	0	8.443843	-0.031467	5.593715	0.050418	-0.008681	0.315813	-0.002461	0.003913	-0.002080	-0.322266	0.095215	-0.791016	0.084440	-0.000315	0.055936	1.000000	-0.000012	0.000020	-0.000010	0.546167	-0.106615	0.830864	0.196386	0.980521	-0.003275	-0.814330	0.164959	0.556466
16964	0	8.437414	-0.020325	5.540829	0.092202	-0.005414	0.281005	-0.000071	0.000163	0.001558	-0.322510	0.099609	-0.788818	0.084374	-0.000203	0.055408	1.000000	-0.000000	0.000001	0.000008	0.546155	-0.106583	0.830876	0.196403	0.980518	-0.003321	-0.814335	0.165000	0.556448
16965	0	8.424001	-0.047570	5.570512	0.053632	-0.023568	0.286482	-0.002186	0.002599	-0.000345	-0.324707	0.099609	-0.786621	0.084241	-0.000475	0.055704	1.000000	-0.000011	0.000013	-0.000002	0.545999	-0.106517	0.830987	0.196611	0.980475	-0.003505	-0.814389	0.165295	0.556281
16966	0	8.445768	-0.036530	5.570324	0.067758	-0.014858	0.304428	0.001636	0.000027	-0.003126	-0.310791	0.093018	-0.795654	0.084458	-0.000367	0.055703	1.000000	0.000008	0.000000	-0.000016	0.545975	-0.106530	0.831001	0.196641	0.980469	-0.003504	-0.814397	0.165323	0.556260
16967	0	8.437137	-0.020027	5.541252	0.089952	-0.001426	0.281027	0.000529	0.004618	-0.002099	-0.320068	0.095215	-0.791016	0.084373	-0.000201	0.055411	1.000000	0.000003	0.000023	-0.000010	0.545970	-0.106554	0.831001	0.196862	0.980424	-0.003625	-0.814347	0.165572	0.556259
16968	0	8.434171	-0.068191	5.576787	0.050263	-0.042379	0.298501	0.003102	0.006962	-0.000737	-0.319580	0.086426	-0.790771	0.084344	-0.000683	0.055765	1.000000	0.000016	0.000035	-0.000004	0.546008	-0.106555	0.830976	0.196868	0.980423	-0.003637	-0.814321	0.165579	0.556296
16969	0	8.444981	-0.035833	5.571522	0.066098	-0.013022	0.304442	0.001953	0.005133	-0.000551	-0.315430	0.095215	-0.791016	0.084451	-0.000359	0.055713	1.000000	0.000010	0.000026	-0.000003	0.545948	-0.106541	0.831017	0.196799	0.980437	-0.003593	-0.814377	0.165505	0.556235
16970	0	8.449120	-0.045641	5.524322	0.105070	-0.030837	0.281660	0.008553	0.003754	0.001324	-0.313477	0.099609	-0.791260	0.084492	-0.000458	0.055242	1.000000	0.000043	0.000019	0.000007	0.545963	-0.106516	0.831011	0.196749	0.980447	-0.003591	-0.814380	0.165461	0.556245
16971	0	8.477017	-0.045663	5.577464	0.078329	-0.023774	0.334396	0.006642	0.005040	0.002714	-0.319824	0.093018	-0.786377	0.084772	-0.000457	0.055772	1.000000	0.000033	0.000025	0.000014	0.546054	-0.106531	0.830949	0.196979	0.980401	-0.003753	-0.814263	0.165729	0.556336
16972	0	8.474376	-0.040323	5.601930	0.058580	-0.014251	0.345790	0.011585	0.010879	0.002143	-0.317627	0.090820	-0.788574	0.084747	-0.000406	0.056015	1.000000	0.000058	0.000054	0.000011	0.546130	-0.106509	0.830902	0.196901	0.980416	-0.003743	-0.814231	0.165649	0.556406
16973	0	8.423892	-0.050472	5.550232	0.070456	-0.027693	0.275119	0.010852	0.007411	0.000950	-0.317627	0.095215	-0.786377	0.084241	-0.000507	0.055499	1.000000	0.000054	0.000037	0.000005	0.546078	-0.106448	0.830944	0.196744	0.980448	-0.003696	-0.814304	0.165502	0.556344
16974	0	8.455785	-0.060404	5.556401	0.081770	-0.040030	0.305081	0.015166	0.015377	0.006433	-0.317871	0.097412	-0.795898	0.084562	-0.000606	0.055557	1.000000	0.000076	0.000077	0.000032	0.546198	-0.106392	0.830872	0.196613	0.980474	-0.003701	-0.814255	0.165382	0.556451
16975	0	8.468432	-0.033005	5.527910	0.118113	-0.018279	0.299629	0.013284	0.010082	0.005426	-0.322266	0.095215	-0.791016	0.084687	-0.000331	0.055275	1.000000	0.000066	0.000050	0.000027	0.546238	-0.106348	0.830851	0.196686	0.980459	-0.003812	-0.814210	0.165499	0.556482
16976	0	8.457311	-0.011473	5.523078	0.120759	0.003199	0.287612	0.014320	0.005654	0.005959	-0.317871	0.097412	-0.788818	0.084575	-0.000116	0.055228	1.000000	0.000072	0.000028	0.000030	0.546279	-0.106281	0.830833	0.196565	0.980483	-0.003819	-0.814212	0.165399	0.556508
16977	0	8.465424	-0.027520	5.552924	0.096949	-0.007086	0.311031	0.013832	0.007456	0.008897	-0.317871	0.095215	-0.788818	0.084656	-0.000275	0.055526	1.000000	0.000069	0.000037	0.000044	0.546224	-0.106154	0.830886	0.196560	0.980484	-0.003952	-0.814250	0.165477	0.556429
16978	0	8.462764	-0.022382	5.577397	0.077188	0.002470	0.322413	0.013558	0.008769	0.007161	-0.317871	0.095215	-0.793457	0.084630	-0.000225	0.055770	1.000000	0.000068	0.000044	0.000036	0.546291	-0.106079	0.830851	0.196439	0.980508	-0.003974	-0.814234	0.165383	0.556481
16979	0	8.477305	-0.053591	5.536194	0.112929	-0.035678	0.311688	0.016132	0.011113	0.008521	-0.317627	0.090820	-0.783936	0.084776	-0.000537	0.055357	1.000000	0.000081	0.000056	0.000043	0.546334	-0.106005	0.830832	0.196421	0.980511	-0.004059	-0.814210	0.165410	0.556508
16980	0	8.428494	-0.065023	5.585401	0.044971	-0.033624	0.298558	0.015514	0.013901	0.006606	-0.315430	0.093018	-0.793213	0.084289	-0.000652	0.055848	1.000000	0.000078	0.000070	0.000033	0.546442	-0.105943	0.830769	0.196288	0.980538	-0.004066	-0.814170	0.165292	0.556602
16981	0	8.438871	-0.032590	5.580792	0.061354	-0.003959	0.304479	0.016938	0.014417	0.008154	-0.322266	0.097412	-0.788818	0.084393	-0.000327	0.055802	1.000000	0.000085	0.000072	0.000041	0.546514	-0.105854	0.830733	0.196087	0.980578	-0.004052	-0.814170	0.165110	0.556657
16982	0	8.407827	-0.026962	5.552899	0.069273	0.000072	0.263134	0.020618	0.012170	0.008492	-0.317627	0.090820	-0.793213	0.084082	-0.000272	0.055524	1.000000	0.000103	0.000061	0.000042	0.546612	-0.105771	0.830679	0.195902	0.980615	-0.004047	-0.814149	0.164944	0.556737
16983	0	8.426919	-0.010460	5.577203	0.062513	0.018582	0.292460	0.020301	0.007062	0.005922	-0.315430	0.095215	-0.784180	0.084271	-0.000108	0.055769	1.000000	0.000102	0.000035	0.000030	0.546549	-0.105682	0.830732	0.195784	0.980639	-0.004057	-0.814219	0.164862	0.556658
16984	0	8.437237	-0.031184	5.583270	0.059483	-0.002033	0.304491	0.019080	0.005398	0.007667	-0.315674	0.099609	-0.788818	0.084374	-0.000314	0.055830	1.000000	0.000095	0.000027	0.000038	0.546589	-0.105596	0.830717	0.195617	0.980672	-0.004054	-0.814232	0.164718	0.556681
16985	0	8.424042	-0.004495	5.601967	0.042275	0.030158	0.303826	0.019008	0.005563	0.009224	-0.322266	0.095215	-0.784180	0.084242	-0.000046	0.056017	1.000000	0.000095	0.000028	0.000046	0.546589	-0.105474	0.830732	0.195638	0.980667	-0.004212	-0.814227	0.164825	0.556657
16986	0	8.404144	-0.020186	5.578891	0.047355	0.013142	0.274515	0.019353	0.004087	0.009403	-0.317871	0.095215	-0.791016	0.084043	-0.000203	0.055787	1.000000	0.000097	0.000020	0.000047	0.546622	-0.105368	0.830724	0.195460	0.980703	-0.004223	-0.814248	0.164681	0.556669
16987	0	8.425661	-0.009101	5.579104	0.059681	0.022999	0.292468	0.015329	0.007811	0.008883	-0.319824	0.093018	-0.786377	0.084259	-0.000092	0.055788	1.000000	0.000077	0.000039	0.000044	0.546531	-0.105208	0.830804	0.195360	0.980722	-0.004322	-0.814333	0.164668	0.556548
16988	0	8.405747	-0.024997	5.556057	0.064753	0.005986	0.263162	0.018130	0.002424	0.011148	-0.315430	0.095215	-0.791016	0.084058	-0.000250	0.055560	1.000000	0.000091	0.000012	0.000056	0.546553	-0.105081	0.830806	0.195183	0.980757	-0.004355	-0.814361	0.164540	0.556545
16989	0	8.390484	0.006450	5.598276	0.027412	0.046379	0.273841	0.014795	0.003196	0.010987	-0.317627	0.093018	-0.783936	0.083906	0.000065	0.055981	1.000000	0.000074	0.000016	0.000055	0.546505	-0.104938	0.830855	0.195086	0.980776	-0.004447	-0.814416	0.164519	0.556471
16990	0	8.435690	-0.030376	5.585611	0.055383	0.003935	0.304514	0.014796	0.003196	0.010987	-0.319824	0.090820	-0.786133	0.084358	-0.000303	0.055855	1.000000	0.000074	0.000016	0.000055	0.546533	-0.104815	0.830853	0.194937	0.980805	-0.004498	-0.814433	0.164422	0.556474
16991	0	8.427184	-0.014242	5.556395	0.075774	0.016439	0.281130	0.014133	-0.000438	0.008241	-0.320068	0.095215	-0.786377	0.084272	-0.000143	0.055564	1.000000	0.000071	-0.000002	0.000041	0.546388	-0.104624	0.830972	0.194671	0.980858	-0.004507	-0.814594	0.164229	0.556296
16992	0	8.433413	-0.025278	5.609459	0.033540	0.014172	0.315876	0.012565	-0.000624	0.009808	-0.315674	0.099609	-0.793457	0.084334	-0.000252	0.056095	1.000000	0.000063	-0.000003	0.000049	0.546380	-0.104505	0.830992	0.194547	0.980883	-0.004560	-0.814629	0.164159	0.556266
16993	0	8.446899	0.001697	5.579742	0.069599	0.036352	0.310428	0.011214	-0.001306	0.006702	-0.320068	0.095215	-0.786377	0.084469	0.000017	0.055798	1.000000	0.000056	-0.000007	0.000034	0.546296	-0.104432	0.831056	0.194703	0.980851	-0.004733	-0.814648	0.164395	0.556168
16994	0	8.433471	-0.025229	5.609373	0.032641	0.016627	0.315876	0.013789	0.001038	0.008060	-0.319824	0.088623	-0.793213	0.084335	-0.000253	0.056093	1.000000	0.000069	0.000005	0.000040	0.546299	-0.104332	0.831067	0.194579	0.980875	-0.004766	-0.814676	0.164312	0.556152
16995	0	8.451201	-0.008347	5.532429	0.106843	0.018958	0.287751	0.009910	0.004432	0.004424	-0.315430	0.093018	-0.788574	0.084513	-0.000084	0.055322	1.000000	0.000050	0.000022	0.000022	0.546207	-0.104239	0.831139	0.194438	0.980903	-0.004758	-0.814771	0.164204	0.556044
16996	0	8.457016	-0.019131	5.586120	0.064590	0.016728	0.322487	0.010373	0.009211	0.003873	-0.317627	0.093018	-0.793213	0.084573	-0.000193	0.055857	1.000000	0.000052	0.000046	0.000019	0.546268	-0.104195	0.831105	0.194365	0.980918	-0.004775	-0.814748	0.164146	0.556095
16997	0	8.434646	-0.029857	5.587191	0.049973	0.008956	0.304539	0.008806	0.009026	0.005439	-0.317871	0.095215	-0.788818	0.084349	-0.000299	0.055868	1.000000	0.000044	0.000045	0.000027	0.546316	-0.104163	0.831077	0.194360	0.980918	-0.004821	-0.814717	0.164162	0.556136
16998	0	8.458275	-0.023843	5.563825	0.083629	0.008608	0.311149	0.010861	0.007404	0.000938	-0.319824	0.093018	-0.791016	0.084585	-0.000241	0.055635	1.000000	0.000054	0.000037	0.000005	0.546356	-0.104144	0.831053	0.194299	0.980930	-0.004811	-0.814704	0.164102	0.556172
16999	0	8.455453	-0.018393	5.588488	0.062825	0.018809	0.322495	0.009270	0.013805	0.004887	-0.317627	0.093018	-0.793213	0.084558	-0.000184	0.055879	1.000000	0.000046	0.000069	0.000024	0.546367	-0.104088	0.831053	0.194297	0.980931	-0.004878	-0.814698	0.164136	0.556172
17000	0	8.443488	-0.050360	5.595498	0.045428	-0.010069	0.316600	0.011110	0.012681	0.005058	-0.317871	0.099609	-0.786621	0.084438	-0.000505	0.055950	1.000000	0.000056	0.000063	0.000025	0.546457	-0.104038	0.831000	0.194212	0.980947	-0.004901	-0.814657	0.164068	0.556251
17001	0	8.454017	-0.018025	5.590661	0.061837	0.020905	0.322497	0.009686	0.012163	0.003510	-0.317871	0.095215	-0.788818	0.084544	-0.000181	0.055901	1.000000	0.000048	0.000061	0.000018	0.546476	-0.104016	0.830990	0.194341	0.980921	-0.005020	-0.814613	0.164239	0.556265
17002	0	8.431428	-0.028713	5.592052	0.047313	0.013073	0.304547	0.009270	0.013806	0.004886	-0.315430	0.093018	-0.791016	0.084318	-0.000288	0.055915	1.000000	0.000046	0.000069	0.000024	0.546576	-0.103969	0.830930	0.194273	0.980934	-0.005053	-0.814563	0.164189	0.556354
17003	0	8.452466	-0.017704	5.593007	0.061034	0.022315	0.322499	0.010423	0.015633	0.004695	-0.317627	0.093018	-0.788574	0.084529	-0.000178	0.055923	1.000000	0.000052	0.000078	0.000023	0.546652	-0.103941	0.830884	0.194286	0.980932	-0.005112	-0.814509	0.164224	0.556423
17004	0	8.438014	-0.044511	5.624131	0.024047	0.002641	0.327940	0.011159	0.019102	0.005880	-0.315674	0.097412	-0.786377	0.084386	-0.000446	0.056233	1.000000	0.000056	0.000096	0.000029	0.546797	-0.103893	0.830795	0.194197	0.980949	-0.005144	-0.814433	0.164151	0.556555
17005	0	8.463189	-0.043691	5.578122	0.076577	-0.006072	0.323239	0.010274	0.023197	0.002221	-0.317871	0.095215	-0.793457	0.084638	-0.000439	0.055771	1.000000	0.000051	0.000116	0.000011	0.546900	-0.103872	0.830729	0.194233	0.980942	-0.005217	-0.814355	0.164208	0.556653
17006	0	8.448982	-0.016954	5.598271	0.059657	0.024658	0.322502	0.013120	0.024232	0.005316	-0.319824	0.093018	-0.788574	0.084497	-0.000171	0.055972	1.000000	0.000066	0.000121	0.000027	0.547085	-0.103837	0.830611	0.194132	0.980961	-0.005233	-0.814254	0.164111	0.556828
17007	0	8.468658	-0.059246	5.611889	0.052517	-0.016415	0.346641	0.011331	0.031779	0.005963	-0.317627	0.093018	-0.786377	0.084696	-0.000593	0.056105	1.000000	0.000057	0.000159	0.000030	0.547234	-0.103802	0.830518	0.194101	0.980967	-0.005289	-0.814162	0.164099	0.556967
17008	0	8.445653	-0.016528	5.603293	0.058068	0.026154	0.322507	0.014667	0.031005	0.006126	-0.317627	0.095215	-0.786377	0.084465	-0.000167	0.056020	1.000000	0.000073	0.000155	0.000031	0.547476	-0.103769	0.830363	0.193983	0.980990	-0.005304	-0.814028	0.163980	0.557198
17009	0	8.438590	-0.059209	5.665162	-0.002883	-0.004706	0.351334	0.010450	0.035873	0.002299	-0.319824	0.093018	-0.793213	0.084396	-0.000594	0.056636	1.000000	0.000052	0.000179	0.000011	0.547629	-0.103724	0.830267	0.193907	0.981005	-0.005343	-0.813942	0.163921	0.557340
17010	0	8.430402	-0.047769	5.615218	0.038932	-0.001549	0.316632	0.014252	0.039878	0.001908	-0.313232	0.097412	-0.791260	0.084315	-0.000481	0.056135	1.000000	0.000071	0.000199	0.000010	0.547934	-0.103747	0.830063	0.193816	0.981023	-0.005325	-0.813759	0.163798	0.557644
17011	0	8.401650	-0.047605	5.666411	-0.015170	0.009708	0.321309	0.015406	0.041705	0.001715	-0.317627	0.090820	-0.786133	0.084028	-0.000480	0.056647	1.000000	0.000077	0.000209	0.000009	0.548202	-0.103810	0.829878	0.193880	0.981011	-0.005358	-0.813563	0.163834	0.557919
17012	0	8.401746	-0.052170	5.645943	0.004166	0.001038	0.309996	0.011948	0.036225	0.002285	-0.317871	0.095215	-0.788818	0.084028	-0.000524	0.056444	1.000000	0.000060	0.000181	0.000011	0.548478	-0.103824	0.829694	0.193806	0.981025	-0.005357	-0.813395	0.163738	0.558192
17013	0	8.373000	-0.052136	5.697020	-0.051286	0.011968	0.314657	0.014991	0.043349	0.003085	-0.313232	0.093018	-0.788574	0.083742	-0.000524	0.056952	1.000000	0.000075	0.000217	0.000015	0.548676	-0.103769	0.829570	0.193626	0.981061	-0.005345	-0.813304	0.163559	0.558377
17014	0	8.367096	-0.045775	5.623458	0.010114	0.005911	0.268658	0.013521	0.036409	0.000717	-0.313232	0.095215	-0.793457	0.083681	-0.000461	0.056219	1.000000	0.000068	0.000182	0.000004	0.548949	-0.103798	0.829386	0.193548	0.981076	-0.005322	-0.813139	0.163448	0.558651
17015	0	8.362741	-0.039914	5.650214	-0.009599	0.015997	0.279964	0.015286	0.035451	0.002448	-0.317627	0.093018	-0.781738	0.083637	-0.000402	0.056487	1.000000	0.000076	0.000177	0.000012	0.549215	-0.103846	0.829204	0.193565	0.981073	-0.005341	-0.812955	0.163438	0.558921
17016	0	8.371439	-0.060581	5.658717	-0.012759	-0.004481	0.292042	0.012980	0.031798	0.002828	-0.313232	0.095215	-0.788818	0.083723	-0.000608	0.056574	1.000000	0.000065	0.000159	0.000014	0.549454	-0.103846	0.829045	0.193481	0.981090	-0.005339	-0.812813	0.163338	0.559156
17017	0	8.380920	-0.028029	5.655471	0.002660	0.026127	0.297914	0.011484	0.031447	0.002833	-0.315430	0.093018	-0.786377	0.083818	-0.000282	0.056542	1.000000	0.000057	0.000157	0.000014	0.549568	-0.103770	0.828979	0.193378	0.981109	-0.005386	-0.812761	0.163267	0.559253
17018	0	8.392052	-0.054166	5.640121	0.019070	-0.003554	0.298696	0.009570	0.032740	0.004211	-0.315430	0.095215	-0.793457	0.083930	-0.000543	0.056387	1.000000	0.000048	0.000164	0.000021	0.549817	-0.103758	0.828816	0.193314	0.981122	-0.005415	-0.812607	0.163199	0.559496
17019	0	8.379487	-0.032563	5.637357	0.020684	0.018543	0.286614	0.010192	0.037183	0.000537	-0.315430	0.093018	-0.788574	0.083805	-0.000328	0.056358	1.000000	0.000051	0.000186	0.000003	0.550004	-0.103771	0.828690	0.193313	0.981122	-0.005444	-0.812481	0.163190	0.559681
17020	0	8.366089	-0.064396	5.646403	0.003218	-0.010264	0.280743	0.009887	0.037855	0.006762	-0.313232	0.093018	-0.795654	0.083672	-0.000644	0.056448	1.000000	0.000049	0.000189	0.000034	0.550299	-0.103742	0.828498	0.193232	0.981138	-0.005493	-0.812301	0.163115	0.559965
17021	0	8.385926	-0.053392	5.649234	0.016615	-0.001251	0.298701	0.009307	0.034049	0.002466	-0.310791	0.093018	-0.786377	0.083869	-0.000536	0.056478	1.000000	0.000047	0.000170	0.000012	0.550501	-0.103755	0.828362	0.193210	0.981142	-0.005509	-0.812169	0.163081	0.560166
17022	0	8.405992	-0.042109	5.651739	0.030628	0.007645	0.316658	0.011907	0.029804	0.001457	-0.313232	0.097412	-0.795898	0.084068	-0.000424	0.056505	1.000000	0.000060	0.000149	0.000007	0.550720	-0.103765	0.828215	0.193142	0.981155	-0.005503	-0.812037	0.162994	0.560383
17023	0	8.382305	-0.052479	5.654613	0.016049	0.000542	0.298702	0.010804	0.034400	0.002457	-0.313232	0.095215	-0.795654	0.083833	-0.000527	0.056532	1.000000	0.000054	0.000172	0.000012	0.550958	-0.103809	0.828051	0.193245	0.981135	-0.005578	-0.811851	0.163090	0.560624
17024	0	8.391703	-0.020025	5.651528	0.032994	0.030451	0.304567	0.009651	0.032573	0.002646	-0.313232	0.095215	-0.793457	0.083926	-0.000202	0.056502	1.000000	0.000048	0.000163	0.000013	0.551202	-0.103811	0.827889	0.193189	0.981146	-0.005595	-0.811699	0.163023	0.560864
17025	0	8.378477	-0.051684	5.660291	0.015336	0.002274	0.298702	0.010542	0.035708	0.000712	-0.310791	0.090820	-0.793213	0.083795	-0.000520	0.056588	1.000000	0.000053	0.000179	0.000004	0.551432	-0.103894	0.827725	0.193329	0.981118	-0.005648	-0.811509	0.163138	0.561106
17026	0	8.400845	-0.045484	5.639262	0.048937	0.001946	0.305372	0.009808	0.032237	-0.000470	-0.308838	0.095215	-0.788818	0.084018	-0.000458	0.056379	1.000000	0.000049	0.000161	-0.000002	0.551667	-0.103926	0.827564	0.193289	0.981126	-0.005639	-0.811358	0.163070	0.561343
17027	0	8.374747	-0.050786	5.665817	0.014998	0.003425	0.298703	0.005163	0.031522	0.002656	-0.317871	0.099609	-0.795898	0.083756	-0.000508	0.056645	1.000000	0.000026	0.000158	0.000013	0.551913	-0.103952	0.827397	0.193320	0.981119	-0.005688	-0.811184	0.163092	0.561589
17028	0	8.372940	-0.050453	5.668490	0.014738	0.003990	0.298703	0.009810	0.032237	-0.000471	-0.310791	0.088623	-0.788574	0.083739	-0.000508	0.056671	1.000000	0.000049	0.000161	-0.000002	0.552148	-0.103984	0.827236	0.193281	0.981127	-0.005679	-0.811033	0.163024	0.561826
17029	0	8.363280	-0.033748	5.641274	0.035759	0.016808	0.275326	0.007608	0.021824	-0.004011	-0.308594	0.093018	-0.795654	0.083639	-0.000341	0.056404	1.000000	0.000038	0.000109	-0.000020	0.552186	-0.104015	0.827207	0.193318	0.981120	-0.005677	-0.810998	0.163049	0.561869
17030	0	8.361947	-0.033256	5.643253	0.035493	0.017375	0.275326	0.006609	0.025450	0.001840	-0.311035	0.095215	-0.798096	0.083627	-0.000334	0.056422	1.000000	0.000033	0.000127	0.000009	0.552370	-0.104013	0.827084	0.193293	0.981125	-0.005706	-0.810879	0.163021	0.562049
17031	0	8.392978	-0.043558	5.650979	0.047258	0.005405	0.305379	0.002120	0.024399	0.001852	-0.311035	0.095215	-0.788818	0.083937	-0.000435	0.056500	1.000000	0.000011	0.000122	0.000009	0.552582	-0.104112	0.826931	0.193503	0.981083	-0.005785	-0.810685	0.163210	0.562274
17032	0	8.369726	-0.054262	5.653149	0.032713	-0.002369	0.287425	0.003776	0.024412	-0.001265	-0.310791	0.093018	-0.793213	0.083704	-0.000544	0.056521	1.000000	0.000019	0.000122	-0.000006	0.552752	-0.104139	0.826814	0.193517	0.981080	-0.005804	-0.810566	0.163211	0.562446
17033	0	8.344047	-0.059633	5.678977	-0.001944	-0.000500	0.280748	0.004038	0.023105	0.000477	-0.310791	0.088623	-0.783936	0.083447	-0.000597	0.056780	1.000000	0.000020	0.000116	0.000002	0.552865	-0.104142	0.826737	0.193571	0.981069	-0.005864	-0.810475	0.163274	0.562558
17034	0	8.388938	-0.042932	5.656979	0.045941	0.007510	0.305384	0.005535	0.023455	0.000473	-0.312988	0.090820	-0.786133	0.083896	-0.000431	0.056560	1.000000	0.000028	0.000117	0.000002	0.553031	-0.104151	0.826625	0.193562	0.981070	-0.005887	-0.810365	0.163259	0.562722
17035	0	8.365827	-0.053256	5.658926	0.029503	-0.000773	0.287435	0.007954	0.020348	-0.003826	-0.310791	0.090820	-0.786133	0.083664	-0.000536	0.056581	1.000000	0.000040	0.000102	-0.000019	0.553044	-0.104045	0.826630	0.193214	0.981140	-0.005774	-0.810439	0.162910	0.562716
17036	0	8.397146	-0.063120	5.666257	0.040557	-0.012849	0.317500	0.006559	0.019028	0.001032	-0.315430	0.093018	-0.786377	0.083977	-0.000633	0.056655	1.000000	0.000033	0.000095	0.000005	0.553173	-0.104041	0.826544	0.193193	0.981144	-0.005796	-0.810355	0.162889	0.562842
17037	0	8.363547	-0.052691	5.662301	0.026905	0.000484	0.287443	0.004140	0.022136	0.005329	-0.304199	0.097656	-0.788818	0.083642	-0.000526	0.056614	1.000000	0.000021	0.000111	0.000027	0.553188	-0.103881	0.826554	0.192976	0.981186	-0.005839	-0.810397	0.162735	0.562827
17038	0	8.370425	-0.068751	5.693564	0.004081	-0.010690	0.310814	0.003226	0.019802	0.000850	-0.311035	0.097412	-0.788818	0.083710	-0.000688	0.056927	1.000000	0.000016	0.000099	0.000004	0.553323	-0.103879	0.826464	0.192983	0.981184	-0.005878	-0.810303	0.162746	0.562959
17039	0	8.383187	-0.041848	5.665506	0.040875	0.011245	0.305402	0.003828	0.017020	0.002781	-0.308838	0.095215	-0.793457	0.083837	-0.000418	0.056648	1.000000	0.000019	0.000085	0.000014	0.553432	-0.103901	0.826388	0.193245	0.981132	-0.006059	-0.810166	0.163049	0.563069
17040	0	8.368363	-0.068542	5.696597	0.003776	-0.008258	0.310817	0.005145	0.018508	-0.000522	-0.310791	0.093018	-0.797852	0.083689	-0.000687	0.056958	1.000000	0.000026	0.000093	-0.000003	0.553554	-0.103911	0.826305	0.193245	0.981132	-0.006077	-0.810083	0.163043	0.563190
17041	0	8.359373	-0.052327	5.668465	0.026134	0.004193	0.287444	0.006007	0.014419	0.003152	-0.311279	0.099609	-0.791260	0.083598	-0.000524	0.056679	1.000000	0.000030	0.000072	0.000016	0.553645	-0.103935	0.826241	0.193341	0.981112	-0.006136	-0.809998	0.163143	0.563283
17042	0	8.380490	-0.041312	5.669499	0.040129	0.013129	0.305403	0.005014	0.012254	0.000230	-0.311279	0.102051	-0.800537	0.083808	-0.000414	0.056690	1.000000	0.000025	0.000061	0.000001	0.553718	-0.103927	0.826194	0.193338	0.981113	-0.006161	-0.809949	0.163146	0.563353
17043	0	8.382360	-0.046261	5.646728	0.059366	0.006358	0.294145	0.008608	0.010172	0.002155	-0.308838	0.099854	-0.798096	0.083826	-0.000464	0.056463	1.000000	0.000043	0.000051	0.000011	0.553721	-0.104006	0.826181	0.193772	0.981026	-0.006370	-0.809843	0.163618	0.563368
17044	0	8.357385	-0.051404	5.671403	0.025230	0.007884	0.287444	0.007014	0.010790	-0.002698	-0.303955	0.090820	-0.791016	0.083577	-0.000517	0.056710	1.000000	0.000035	0.000054	-0.000013	0.553776	-0.104024	0.826142	0.193770	0.981026	-0.006361	-0.809806	0.163605	0.563426
17045	0	8.378623	-0.040096	5.672266	0.040204	0.017109	0.305397	0.008267	0.011648	0.001967	-0.313232	0.095215	-0.791016	0.083790	-0.000402	0.056718	1.000000	0.000041	0.000058	0.000010	0.553904	-0.104098	0.826047	0.193953	0.980990	-0.006430	-0.809675	0.163776	0.563564
17046	0	8.355993	-0.050774	5.673460	0.025653	0.009363	0.287442	0.007422	0.014939	0.004703	-0.311035	0.097412	-0.791260	0.083564	-0.000508	0.056728	1.000000	0.000037	0.000075	0.000024	0.554008	-0.104050	0.825984	0.193907	0.980999	-0.006481	-0.809615	0.163754	0.563657
17047	0	8.363218	-0.066671	5.704170	0.001566	-0.000832	0.310821	0.007845	0.013294	0.003335	-0.315430	0.095215	-0.791016	0.083636	-0.000668	0.057036	1.000000	0.000039	0.000066	0.000017	0.553983	-0.103984	0.826008	0.193946	0.980990	-0.006581	-0.809622	0.163847	0.563620
17048	0	8.362411	-0.066394	5.705356	0.001289	-0.000221	0.310821	0.009082	0.014951	0.001588	-0.313232	0.097412	-0.793457	0.083628	-0.000666	0.057047	1.000000	0.000045	0.000075	0.000008	0.554081	-0.103966	0.825945	0.193905	0.980998	-0.006597	-0.809565	0.163810	0.563712
17049	0	8.351098	-0.044769	5.700667	0.002178	0.022279	0.298690	0.009764	0.011999	0.001964	-0.315430	0.095215	-0.795654	0.083514	-0.000450	0.057002	1.000000	0.000049	0.000060	0.000010	0.554000	-0.103893	0.826009	0.193907	0.980997	-0.006666	-0.809620	0.163861	0.563618
17050	0	8.360955	-0.065612	5.707499	-0.001102	0.001922	0.310821	0.009764	0.011999	0.001964	-0.310791	0.093018	-0.791016	0.083613	-0.000658	0.057070	1.000000	0.000049	0.000060	0.000010	0.554073	-0.103866	0.825963	0.193858	0.981007	-0.006681	-0.809582	0.163821	0.563684
17051	0	8.371682	-0.033207	5.702497	0.014470	0.032098	0.316646	0.010364	0.009217	0.003896	-0.311035	0.097412	-0.788818	0.083719	-0.000333	0.057021	1.000000	0.000052	0.000046	0.000019	0.554015	-0.103779	0.826013	0.193764	0.981025	-0.006705	-0.809644	0.163766	0.563611
17052	0	8.373603	-0.038199	5.679688	0.033753	0.023419	0.305408	0.009683	0.012169	0.003519	-0.308594	0.090820	-0.797852	0.083739	-0.000383	0.056792	1.000000	0.000048	0.000061	0.000018	0.554091	-0.103737	0.825967	0.193708	0.981036	-0.006734	-0.809605	0.163727	0.563678
17053	0	8.359073	-0.064823	5.710264	-0.003779	0.004108	0.310819	0.005275	0.010948	0.001969	-0.313232	0.093018	-0.791016	0.083594	-0.000649	0.057098	1.000000	0.000026	0.000055	0.000010	0.554120	-0.103722	0.825950	0.193733	0.981031	-0.006777	-0.809579	0.163769	0.563703
17054	0	8.372349	-0.037893	5.681537	0.032775	0.024750	0.305408	0.007030	0.009992	0.003712	-0.308838	0.095215	-0.793457	0.083726	-0.000379	0.056811	1.000000	0.000035	0.000050	0.000019	0.554179	-0.103674	0.825916	0.193697	0.981038	-0.006822	-0.809547	0.163758	0.563752
17055	0	8.360377	-0.069793	5.688369	0.014292	-0.003776	0.299588	0.009683	0.012169	0.003519	-0.310791	0.093018	-0.797852	0.083607	-0.000699	0.056879	1.000000	0.000048	0.000061	0.000018	0.554182	-0.103609	0.825922	0.193627	0.981051	-0.006851	-0.809562	0.163717	0.563743
17056	0	8.368464	-0.032117	5.707225	0.011683	0.035473	0.316638	0.012677	0.012870	0.003514	-0.311035	0.093262	-0.814209	0.083688	-0.000323	0.057067	1.000000	0.000063	0.000064	0.000018	0.554264	-0.103569	0.825872	0.193546	0.981067	-0.006863	-0.809525	0.163648	0.563816
17057	0	8.372832	-0.042371	5.660876	0.051144	0.016888	0.294178	0.009601	0.012339	0.005074	-0.313232	0.097412	-0.795898	0.083732	-0.000424	0.056604	1.000000	0.000048	0.000062	0.000025	0.554372	-0.103677	0.825786	0.193690	0.981039	-0.006860	-0.809417	0.163749	0.563942
17058	0	8.394010	-0.031417	5.661857	0.065121	0.025856	0.312139	0.009601	0.012339	0.005073	-0.311035	0.095215	-0.795654	0.083944	-0.000315	0.056613	1.000000	0.000048	0.000062	0.000025	0.554453	-0.103621	0.825739	0.193625	0.981051	-0.006902	-0.809377	0.163711	0.564011
17059	0	8.347007	-0.047629	5.686700	0.015874	0.019737	0.287447	0.009684	0.012169	0.003517	-0.311035	0.095215	-0.791016	0.083474	-0.000478	0.056862	1.000000	0.000048	0.000061	0.000018	0.554446	-0.103606	0.825745	0.193714	0.981033	-0.006979	-0.809360	0.163828	0.564000
17060	0	8.368126	-0.036346	5.687766	0.029847	0.028711	0.305406	0.013917	0.014525	0.001767	-0.308838	0.099854	-0.795898	0.083685	-0.000367	0.056872	1.000000	0.000070	0.000073	0.000009	0.554538	-0.103585	0.825686	0.193634	0.981049	-0.006970	-0.809316	0.163746	0.564087
17061	0	8.367464	-0.035867	5.688742	0.029158	0.030269	0.305404	0.008951	0.008696	0.002341	-0.308594	0.093018	-0.788574	0.083677	-0.000360	0.056884	1.000000	0.000045	0.000043	0.000012	0.554531	-0.103585	0.825691	0.193791	0.981017	-0.007078	-0.809284	0.163936	0.564078
17062	0	8.342454	-0.041049	5.713336	-0.004992	0.031873	0.298663	0.013018	0.011394	0.003702	-0.306641	0.097656	-0.793457	0.083428	-0.000413	0.057129	1.000000	0.000065	0.000057	0.000019	0.554601	-0.103540	0.825649	0.193707	0.981034	-0.007090	-0.809256	0.163867	0.564139
17063	0	8.341812	-0.040834	5.714276	-0.005392	0.032879	0.298659	0.009859	0.011035	0.006816	-0.310791	0.093018	-0.793213	0.083421	-0.000408	0.057138	1.000000	0.000049	0.000055	0.000034	0.554659	-0.103473	0.825619	0.193703	0.981034	-0.007181	-0.809217	0.163908	0.564182
17064	0	8.341221	-0.040660	5.715140	-0.005692	0.033513	0.298657	0.011862	0.009567	0.003893	-0.308838	0.095459	-0.798096	0.083415	-0.000408	0.057147	1.000000	0.000059	0.000048	0.000019	0.554715	-0.103422	0.825588	0.193628	0.981049	-0.007202	-0.809197	0.163852	0.564227
17065	0	8.340777	-0.040389	5.715790	-0.006325	0.034163	0.298655	0.009549	0.005915	0.004276	-0.313232	0.095215	-0.784180	0.083409	-0.000405	0.057155	1.000000	0.000048	0.000030	0.000021	0.554708	-0.103397	0.825596	0.193634	0.981047	-0.007234	-0.809201	0.163876	0.564215
17066	0	8.342950	-0.045447	5.692668	0.012947	0.025462	0.287438	0.010706	0.007741	0.004084	-0.310791	0.093018	-0.795654	0.083432	-0.000456	0.056923	1.000000	0.000054	0.000039	0.000020	0.554749	-0.103342	0.825575	0.193567	0.981060	-0.007263	-0.809188	0.163834	0.564246
17067	0	8.318120	-0.050798	5.716970	-0.022814	0.027355	0.280686	0.008052	0.005565	0.004277	-0.308838	0.097656	-0.793457	0.083183	-0.000509	0.057167	1.000000	0.000040	0.000028	0.000021	0.554653	-0.103189	0.825658	0.193400	0.981093	-0.007305	-0.809294	0.163734	0.564123
17068	0	8.317618	-0.050552	5.717702	-0.023125	0.027992	0.280683	0.014434	0.011914	0.005254	-0.310791	0.093018	-0.791016	0.083180	-0.000507	0.057172	1.000000	0.000072	0.000060	0.000026	0.554730	-0.103129	0.825614	0.193297	0.981113	-0.007323	-0.809266	0.163651	0.564187
17069	0	8.341451	-0.044720	5.694870	0.009792	0.028040	0.287435	0.011780	0.009739	0.005447	-0.315430	0.095215	-0.795654	0.083417	-0.000448	0.056945	1.000000	0.000059	0.000049	0.000027	0.554733	-0.103059	0.825621	0.193263	0.981119	-0.007384	-0.809271	0.163658	0.564177
17070	0	8.335832	-0.033899	5.742950	-0.029676	0.047361	0.309842	0.012460	0.006787	0.005828	-0.306396	0.093018	-0.793213	0.083360	-0.000340	0.057427	1.000000	0.000062	0.000034	0.000029	0.554769	-0.102985	0.825606	0.193173	0.981137	-0.007418	-0.809268	0.163600	0.564198
17071	0	8.330045	-0.022911	5.690289	0.011435	0.050326	0.275271	0.012287	0.007920	0.002526	-0.306396	0.095459	-0.793457	0.083303	-0.000232	0.056900	1.000000	0.000061	0.000040	0.000013	0.554744	-0.102943	0.825628	0.193108	0.981149	-0.007417	-0.809301	0.163550	0.564166
17072	0	8.318293	-0.054607	5.696786	-0.006188	0.021658	0.269468	0.012800	0.005311	0.006018	-0.306396	0.090820	-0.797852	0.083184	-0.000547	0.056966	1.000000	0.000064	0.000027	0.000030	0.554768	-0.102864	0.825622	0.193014	0.981168	-0.007450	-0.809307	0.163490	0.564175
17073	0	8.337349	-0.038289	5.720803	-0.011181	0.039620	0.298630	0.011643	0.003485	0.006210	-0.313477	0.099609	-0.795898	0.083374	-0.000384	0.057207	1.000000	0.000058	0.000017	0.000031	0.554822	-0.102854	0.825587	0.193002	0.981170	-0.007467	-0.809273	0.163483	0.564226
17074	0	8.337190	-0.037962	5.721038	-0.011494	0.040260	0.298628	0.013647	0.002016	0.003288	-0.306396	0.095459	-0.795654	0.083372	-0.000382	0.057210	1.000000	0.000068	0.000010	0.000016	0.554815	-0.102797	0.825599	0.192916	0.981187	-0.007473	-0.809298	0.163417	0.564208
17075	0	8.369461	-0.047936	5.727078	-0.000773	0.029110	0.328750	0.013563	0.002188	0.004843	-0.311035	0.097412	-0.784180	0.083695	-0.000481	0.057270	1.000000	0.000068	0.000011	0.000024	0.554771	-0.102793	0.825629	0.193058	0.981158	-0.007567	-0.809294	0.163592	0.564163
17076	0	8.361541	-0.031690	5.697470	0.021539	0.041344	0.305384	0.013086	-0.002589	0.005418	-0.308594	0.090820	-0.795654	0.083615	-0.000318	0.056976	1.000000	0.000065	-0.000013	0.000027	0.554730	-0.102707	0.825667	0.192966	0.981176	-0.007594	-0.809344	0.163538	0.564107
17077	0	8.361523	-0.031514	5.697497	0.020315	0.042166	0.305383	0.010147	0.003136	0.006210	-0.308838	0.099854	-0.791260	0.083616	-0.000315	0.056974	1.000000	0.000051	0.000016	0.000031	0.554671	-0.102568	0.825724	0.192821	0.981204	-0.007645	-0.809420	0.163457	0.564022
17078	0	8.396412	-0.046996	5.679793	0.050784	0.020870	0.324323	0.015740	-0.000414	0.005223	-0.308594	0.093018	-0.793213	0.083964	-0.000472	0.056798	1.000000	0.000079	-0.000002	0.000026	0.554647	-0.102487	0.825750	0.192708	0.981226	-0.007656	-0.809463	0.163375	0.563984
17079	0	8.339325	-0.041795	5.698005	0.005212	0.035685	0.287414	0.012039	0.008436	0.007187	-0.313477	0.099609	-0.786621	0.083396	-0.000418	0.056977	1.000000	0.000060	0.000042	0.000036	0.554668	-0.102429	0.825743	0.192747	0.981218	-0.007757	-0.809440	0.163462	0.563993
17080	0	8.379970	-0.014627	5.722403	0.013852	0.062419	0.334525	0.016191	0.010960	0.006990	-0.312988	0.090820	-0.795654	0.083803	-0.000148	0.057219	1.000000	0.000081	0.000055	0.000035	0.554739	-0.102350	0.825705	0.192621	0.981242	-0.007781	-0.809421	0.163365	0.564048
17081	0	8.370671	-0.051633	5.705411	0.014110	0.024902	0.317549	0.015796	0.006011	0.006011	-0.308838	0.095215	-0.788818	0.083708	-0.000518	0.057052	1.000000	0.000079	0.000030	0.000030	0.554638	-0.102200	0.825792	0.192450	0.981276	-0.007815	-0.809531	0.163258	0.563921
17082	0	8.370220	-0.051330	5.706075	0.013781	0.025558	0.317548	0.016448	0.009657	0.008736	-0.306396	0.095459	-0.798096	0.083705	-0.000514	0.057057	1.000000	0.000082	0.000048	0.000044	0.554701	-0.102101	0.825762	0.192312	0.981302	-0.007851	-0.809520	0.163159	0.563965
17083	0	8.359223	-0.029934	5.700879	0.016722	0.047381	0.305366	0.015290	0.007832	0.008929	-0.313232	0.093018	-0.795654	0.083594	-0.000300	0.057005	1.000000	0.000076	0.000039	0.000045	0.554754	-0.102050	0.825733	0.192309	0.981303	-0.007923	-0.809485	0.163191	0.564006
17084	0	8.369307	-0.051037	5.707416	0.013328	0.027104	0.317544	0.015630	0.006356	0.009121	-0.306396	0.090820	-0.793213	0.083695	-0.000511	0.057071	1.000000	0.000078	0.000032	0.000046	0.554791	-0.101942	0.825721	0.192176	0.981328	-0.007968	-0.809491	0.163104	0.564023
17085	0	8.358305	-0.029597	5.702227	0.015565	0.048200	0.305364	0.017607	0.011483	0.008540	-0.308594	0.090820	-0.788574	0.083586	-0.000297	0.057017	1.000000	0.000088	0.000057	0.000043	0.554837	-0.101842	0.825702	0.191947	0.981373	-0.007938	-0.809514	0.162896	0.564050
17086	0	8.352575	-0.018677	5.750396	-0.023916	0.067606	0.327716	0.015291	0.007832	0.008928	-0.306396	0.095215	-0.791016	0.083528	-0.000187	0.057501	1.000000	0.000076	0.000039	0.000045	0.554886	-0.101738	0.825682	0.191818	0.981398	-0.007983	-0.809511	0.162811	0.564079
17087	0	8.359756	-0.034586	5.680221	0.034194	0.039999	0.294185	0.015771	0.012609	0.008348	-0.313232	0.097412	-0.784180	0.083601	-0.000347	0.056797	1.000000	0.000079	0.000063	0.000042	0.554956	-0.101620	0.825650	0.191619	0.981437	-0.008002	-0.809510	0.162651	0.564126
17088	0	8.353951	-0.023632	5.728487	-0.005290	0.059406	0.316531	0.015036	0.009135	0.007180	-0.310791	0.090820	-0.795654	0.083542	-0.000238	0.057281	1.000000	0.000075	0.000046	0.000036	0.555012	-0.101536	0.825622	0.191502	0.981459	-0.008034	-0.809499	0.162567	0.564166
17089	0	8.334066	-0.039559	5.705711	-0.001813	0.042604	0.287388	0.016111	0.011134	0.008540	-0.313232	0.093018	-0.791016	0.083344	-0.000397	0.057052	1.000000	0.000081	0.000056	0.000043	0.554973	-0.101365	0.825670	0.191276	0.981503	-0.008070	-0.809580	0.162409	0.564096
17090	0	8.343971	-0.060598	5.712512	-0.005225	0.022331	0.299572	0.013539	0.008786	0.007180	-0.308594	0.093018	-0.797852	0.083442	-0.000607	0.057121	1.000000	0.000068	0.000044	0.000036	0.555025	-0.101280	0.825645	0.191171	0.981523	-0.008110	-0.809568	0.162340	0.564132
17091	0	8.376883	-0.017650	5.707052	0.025245	0.060501	0.323318	0.012719	0.005485	0.007568	-0.308594	0.090820	-0.786377	0.083770	-0.000177	0.057068	1.000000	0.000064	0.000027	0.000038	0.554992	-0.101177	0.825680	0.191033	0.981550	-0.008129	-0.809623	0.162244	0.564080
17092	0	8.354646	-0.028258	5.707593	0.010648	0.052790	0.305348	0.011051	0.006265	0.004266	-0.308594	0.093018	-0.793213	0.083548	-0.000284	0.057073	1.000000	0.000055	0.000031	0.000021	0.555018	-0.101117	0.825670	0.190965	0.981563	-0.008159	-0.809622	0.162202	0.564095
17093	0	8.386625	-0.038362	5.714100	0.020837	0.040578	0.335505	0.015460	0.007485	0.005816	-0.308838	0.097412	-0.791260	0.083868	-0.000386	0.057138	1.000000	0.000077	0.000037	0.000029	0.555019	-0.100992	0.825684	0.190717	0.981611	-0.008134	-0.809680	0.161987	0.564074
17094	0	8.331905	-0.038511	5.708872	-0.004935	0.045421	0.287375	0.010544	0.008089	0.007182	-0.312988	0.090820	-0.795654	0.083321	-0.000385	0.057085	1.000000	0.000053	0.000040	0.000036	0.555065	-0.100906	0.825664	0.190636	0.981627	-0.008191	-0.809667	0.161948	0.564103
17095	0	8.342862	-0.006444	5.703539	0.011244	0.075517	0.293149	0.007379	0.008519	0.003882	-0.313232	0.097412	-0.798096	0.083431	-0.000065	0.057032	1.000000	0.000037	0.000043	0.000019	0.555041	-0.100849	0.825687	0.190613	0.981631	-0.008238	-0.809689	0.161959	0.564068
17096	0	8.330936	-0.038430	5.710287	-0.006435	0.046877	0.287368	0.007295	0.008693	0.005436	-0.308838	0.095215	-0.795654	0.083312	-0.000384	0.057099	1.000000	0.000036	0.000043	0.000027	0.555088	-0.100781	0.825663	0.190568	0.981639	-0.008299	-0.809667	0.161951	0.564102
17097	0	8.362868	-0.048817	5.716867	0.003985	0.035472	0.317527	0.006304	0.006520	0.002522	-0.304443	0.097656	-0.795898	0.083631	-0.000489	0.057166	1.000000	0.000032	0.000033	0.000013	0.555061	-0.100800	0.825679	0.190730	0.981607	-0.008381	-0.809648	0.162134	0.564077
17098	0	8.349389	-0.022091	5.735141	-0.012861	0.066450	0.316481	0.004468	0.007647	0.002329	-0.311279	0.099854	-0.798096	0.083496	-0.000221	0.057348	1.000000	0.000022	0.000038	0.000012	0.555094	-0.100761	0.825662	0.190726	0.981607	-0.008433	-0.809626	0.162156	0.564102
17099	0	8.363024	0.004573	5.706043	0.024310	0.087877	0.311087	0.001558	0.006775	0.000777	-0.310791	0.093018	-0.793213	0.083632	0.000046	0.057058	1.000000	0.000008	0.000034	0.000004	0.555126	-0.100869	0.825627	0.191116	0.981530	-0.008584	-0.809512	0.162556	0.564151
17100	0	8.348587	-0.021668	5.736310	-0.012965	0.068661	0.316466	0.004891	0.006775	-0.005444	-0.310791	0.093018	-0.797852	0.083488	-0.000220	0.057360	1.000000	0.000024	0.000034	-0.000027	0.555137	-0.100905	0.825615	0.191152	0.981523	-0.008570	-0.809496	0.162576	0.564168
17101	0	8.350686	-0.026687	5.713394	0.005620	0.059649	0.305314	0.000542	0.011203	0.000196	-0.313232	0.097412	-0.798096	0.083510	-0.000267	0.057129	1.000000	0.000003	0.000056	0.000001	0.555146	-0.100897	0.825611	0.191162	0.981521	-0.008588	-0.809488	0.162593	0.564175
17102	0	8.342256	-0.010457	5.684585	0.027949	0.071828	0.281960	0.002801	0.009204	-0.007385	-0.306396	0.090820	-0.795654	0.083425	-0.000108	0.056842	1.000000	0.000014	0.000046	-0.000037	0.555173	-0.100956	0.825585	0.191226	0.981509	-0.008569	-0.809454	0.162630	0.564212
17103	0	8.384553	-0.041477	5.697327	0.035437	0.038894	0.324335	-0.002030	0.009633	-0.007576	-0.306396	0.095215	-0.791016	0.083848	-0.000417	0.056969	1.000000	-0.000010	0.000048	-0.000038	0.555178	-0.101066	0.825568	0.191398	0.981475	-0.008559	-0.809410	0.162763	0.564238
17104	0	8.351593	-0.030590	5.692239	0.023939	0.052107	0.294159	-0.002453	0.011283	-0.006215	-0.306396	0.095459	-0.793457	0.083519	-0.000308	0.056918	1.000000	-0.000012	0.000056	-0.000031	0.555224	-0.101116	0.825531	0.191497	0.981456	-0.008580	-0.809354	0.162851	0.564292
17105	0	8.350990	-0.030099	5.693127	0.023874	0.052918	0.294155	-0.000532	0.009982	-0.007577	-0.308594	0.090820	-0.788574	0.083513	-0.000304	0.056927	1.000000	-0.000003	0.000050	-0.000038	0.555270	-0.101223	0.825487	0.191690	0.981418	-0.008598	-0.809278	0.163012	0.564355
17106	0	8.380141	-0.034624	5.723628	0.015090	0.050459	0.335471	-0.003866	0.010760	-0.007770	-0.306396	0.093262	-0.800293	0.083804	-0.000348	0.057232	1.000000	-0.000019	0.000054	-0.000039	0.555309	-0.101288	0.825453	0.191810	0.981394	-0.008614	-0.809223	0.163113	0.564405
17107	0	8.349781	-0.029112	5.694904	0.023194	0.053633	0.294153	-0.002368	0.011109	-0.007771	-0.304199	0.097656	-0.793457	0.083501	-0.000294	0.056944	1.000000	-0.000012	0.000056	-0.000039	0.555358	-0.101372	0.825410	0.191861	0.981385	-0.008561	-0.809177	0.163118	0.564469
17108	0	8.349223	-0.028725	5.695725	0.022846	0.054298	0.294150	-0.006522	0.008586	-0.007575	-0.306396	0.093018	-0.795654	0.083495	-0.000289	0.056954	1.000000	-0.000033	0.000043	-0.000038	0.555380	-0.101431	0.825388	0.192001	0.981357	-0.008594	-0.809129	0.163248	0.564501
17109	0	8.359209	-0.049515	5.702437	0.020106	0.034031	0.306356	-0.000193	0.008507	-0.007384	-0.313232	0.093018	-0.783936	0.083594	-0.000498	0.057021	1.000000	-0.000001	0.000043	-0.000037	0.555444	-0.101574	0.825327	0.192236	0.981311	-0.008604	-0.809028	0.163436	0.564590
17110	0	8.348238	-0.027883	5.697173	0.022878	0.055608	0.294143	-0.005110	0.009109	-0.006021	-0.302002	0.097656	-0.793457	0.083485	-0.000280	0.056968	1.000000	-0.000026	0.000046	-0.000030	0.555474	-0.101619	0.825302	0.192356	0.981287	-0.008641	-0.808980	0.163552	0.564626
17111	0	8.346798	-0.080762	5.709906	0.001549	0.006311	0.300598	-0.001690	0.008158	-0.007383	-0.308838	0.099609	-0.788818	0.083470	-0.000810	0.057096	1.000000	-0.000008	0.000041	-0.000037	0.555454	-0.101645	0.825311	0.192434	0.981272	-0.008660	-0.808974	0.163629	0.564611
17112	0	8.357707	-0.048177	5.704649	0.018573	0.036260	0.306352	-0.000531	0.009983	-0.007578	-0.306641	0.097656	-0.800537	0.083580	-0.000485	0.057042	1.000000	-0.000003	0.000050	-0.000038	0.555487	-0.101706	0.825282	0.192526	0.981254	-0.008659	-0.808930	0.163699	0.564655
17113	0	8.356201	-0.100930	5.717488	-0.002103	-0.012577	0.312814	-0.002114	0.009808	-0.006023	-0.306396	0.093018	-0.786377	0.083565	-0.001011	0.057171	1.000000	-0.000011	0.000049	-0.000030	0.555510	-0.101838	0.825250	0.192872	0.981185	-0.008749	-0.808832	0.164028	0.564700
17114	0	8.356658	-0.047323	5.706193	0.018059	0.038277	0.306345	-0.000025	0.007380	-0.004080	-0.306641	0.097656	-0.800537	0.083569	-0.000475	0.057059	1.000000	-0.000000	0.000037	-0.000020	0.555529	-0.101861	0.825235	0.192941	0.981171	-0.008775	-0.808803	0.164096	0.564722
17115	0	8.331753	-0.052555	5.730398	-0.015906	0.039966	0.299507	-0.002767	0.005379	-0.002331	-0.306396	0.093018	-0.791016	0.083319	-0.000526	0.057302	1.000000	-0.000014	0.000027	-0.000012	0.555544	-0.101909	0.825219	0.193095	0.981140	-0.008829	-0.808756	0.164250	0.564745
17116	0	8.320010	-0.084282	5.736883	-0.033634	0.011372	0.293758	0.001897	0.006079	-0.005441	-0.308838	0.097656	-0.795898	0.083202	-0.000846	0.057366	1.000000	0.000009	0.000030	-0.000027	0.555550	-0.101943	0.825210	0.193156	0.981128	-0.008832	-0.808737	0.164301	0.564756
17117	0	8.333774	-0.057433	5.707656	0.002888	0.031832	0.288372	-0.001102	0.004601	0.000972	-0.308838	0.095215	-0.795654	0.083339	-0.000574	0.057075	1.000000	-0.000006	0.000023	0.000005	0.555544	-0.101939	0.825215	0.193247	0.981110	-0.008899	-0.808719	0.164415	0.564749
17118	0	8.341362	-0.073079	5.737668	-0.020162	0.021054	0.311721	0.003987	0.003652	-0.003498	-0.308838	0.097656	-0.795898	0.083415	-0.000733	0.057375	1.000000	0.000020	0.000018	-0.000017	0.555534	-0.101950	0.825220	0.193281	0.981103	-0.008907	-0.808718	0.164447	0.564741
17119	0	8.341238	-0.072733	5.737852	-0.020651	0.021851	0.311718	0.002995	0.000699	-0.000000	-0.310791	0.093018	-0.795654	0.083413	-0.000728	0.057378	1.000000	0.000015	0.000003	-0.000000	0.555483	-0.101976	0.825251	0.193415	0.981076	-0.008958	-0.808721	0.164592	0.564695
17120	0	8.308904	-0.062103	5.731804	-0.032108	0.035059	0.281522	0.005170	-0.001903	0.000388	-0.308594	0.093018	-0.795654	0.083089	-0.000622	0.057319	1.000000	0.000026	-0.000010	0.000002	0.555435	-0.101940	0.825288	0.193417	0.981075	-0.008991	-0.808753	0.164619	0.564641
17121	0	8.357150	-0.104270	5.696351	0.014167	-0.017158	0.301696	0.006582	-0.001379	0.001943	-0.308594	0.093018	-0.783936	0.083571	-0.001044	0.056964	1.000000	0.000033	-0.000007	0.000010	0.555363	-0.101892	0.825343	0.193322	0.981095	-0.008964	-0.808826	0.164535	0.564561
17122	0	8.314502	-0.072490	5.684058	0.005853	0.016939	0.259274	0.007512	-0.005632	0.004080	-0.304443	0.097656	-0.795898	0.083143	-0.000725	0.056843	1.000000	0.000038	-0.000028	0.000020	0.555292	-0.101813	0.825400	0.193284	0.981101	-0.009014	-0.808883	0.164542	0.564476
17123	0	8.344590	-0.077291	5.713180	-0.003032	0.014530	0.300590	0.012683	-0.007535	0.004468	-0.308838	0.097656	-0.793457	0.083444	-0.000775	0.057135	1.000000	0.000063	-0.000038	0.000022	0.555201	-0.101722	0.825472	0.193192	0.981119	-0.009036	-0.808967	0.164491	0.564371
17124	0	8.401848	-0.082242	5.694997	0.041551	0.001603	0.337636	0.013413	-0.004838	0.012046	-0.306396	0.095459	-0.793457	0.084017	-0.000821	0.056952	1.000000	0.000067	-0.000024	0.000060	0.555152	-0.101567	0.825524	0.193063	0.981144	-0.009119	-0.809032	0.164441	0.564293
17125	0	8.374781	-0.082339	5.742150	-0.012125	0.012967	0.341904	0.010818	0.000192	0.006605	-0.311035	0.095215	-0.786377	0.083748	-0.000824	0.057421	1.000000	0.000054	0.000001	0.000033	0.555128	-0.101518	0.825546	0.193086	0.981139	-0.009187	-0.809043	0.164501	0.564260
17126	0	8.423953	-0.071274	5.694674	0.055173	0.011474	0.355606	0.016412	-0.003362	0.005632	-0.306396	0.095215	-0.791016	0.084239	-0.000715	0.056948	1.000000	0.000082	-0.000017	0.000028	0.555079	-0.101428	0.825590	0.192969	0.981162	-0.009200	-0.809105	0.164420	0.564195
17127	0	8.391539	-0.060563	5.688748	0.043042	0.024738	0.325408	0.015960	0.004890	0.009322	-0.306641	0.097656	-0.791260	0.083917	-0.000606	0.056885	1.000000	0.000080	0.000024	0.000047	0.555056	-0.101266	0.825626	0.192757	0.981203	-0.009239	-0.809171	0.164274	0.564142
17128	0	8.399122	-0.076175	5.718782	0.019969	0.013989	0.348755	0.016385	0.003240	0.007961	-0.310791	0.090820	-0.795654	0.083992	-0.000763	0.057186	1.000000	0.000082	0.000016	0.000040	0.555064	-0.101164	0.825633	0.192627	0.981228	-0.009272	-0.809196	0.164186	0.564132
17129	0	8.379665	-0.092141	5.695450	0.024679	-0.003445	0.319677	0.017797	0.003764	0.009515	-0.306641	0.097656	-0.800537	0.083798	-0.000922	0.056953	1.000000	0.000089	0.000019	0.000048	0.555061	-0.101055	0.825648	0.192449	0.981263	-0.009277	-0.809241	0.164045	0.564109
17130	0	8.380457	-0.038695	5.683636	0.044886	0.047387	0.313171	0.018136	0.002288	0.009710	-0.312988	0.088623	-0.793213	0.083805	-0.000388	0.056835	1.000000	0.000091	0.000011	0.000049	0.555065	-0.100934	0.825661	0.192295	0.981293	-0.009314	-0.809275	0.163941	0.564090
17131	0	8.376620	-0.086504	5.719693	0.004141	0.006829	0.330787	0.014292	0.004893	0.012429	-0.308838	0.097412	-0.788818	0.083768	-0.000864	0.057195	1.000000	0.000071	0.000024	0.000062	0.555077	-0.100817	0.825667	0.192124	0.981326	-0.009337	-0.809307	0.163813	0.564081
17132	0	8.379737	-0.038675	5.684698	0.043923	0.048193	0.313172	0.017266	0.012967	0.008341	-0.310791	0.090820	-0.788574	0.083801	-0.000388	0.056842	1.000000	0.000086	0.000065	0.000042	0.555164	-0.100727	0.825619	0.191984	0.981353	-0.009368	-0.809280	0.163707	0.564150
17133	0	8.330156	-0.049067	5.732750	-0.025038	0.050982	0.299439	0.017883	0.003588	0.007959	-0.311035	0.095215	-0.786377	0.083303	-0.000492	0.057326	1.000000	0.000089	0.000018	0.000040	0.555109	-0.100559	0.825677	0.191715	0.981406	-0.009367	-0.809382	0.163494	0.564066
17134	0	8.322023	-0.033038	5.703533	-0.002659	0.063079	0.276092	0.015286	0.007843	0.008928	-0.308594	0.090820	-0.797852	0.083222	-0.000331	0.057032	1.000000	0.000076	0.000039	0.000045	0.555156	-0.100455	0.825658	0.191588	0.981430	-0.009413	-0.809380	0.163412	0.564093
17135	0	8.329355	-0.048711	5.733917	-0.026436	0.051960	0.299430	0.016698	0.008367	0.010481	-0.303955	0.088623	-0.786133	0.083296	-0.000488	0.057336	1.000000	0.000083	0.000042	0.000052	0.555165	-0.100303	0.825670	0.191328	0.981481	-0.009415	-0.809435	0.163201	0.564075
17136	0	8.288786	-0.022499	5.698789	-0.015139	0.076558	0.245870	0.014040	0.006194	0.010678	-0.310791	0.090820	-0.795654	0.082890	-0.000225	0.056985	1.000000	0.000070	0.000031	0.000053	0.555202	-0.100179	0.825660	0.191202	0.981505	-0.009483	-0.809440	0.163133	0.564088
17137	0	8.318206	-0.027464	5.728878	-0.024323	0.073165	0.287184	0.016300	0.003415	0.009514	-0.308594	0.093018	-0.788574	0.083183	-0.000275	0.057287	1.000000	0.000082	0.000017	0.000048	0.555213	-0.100006	0.825674	0.190816	0.981581	-0.009422	-0.809523	0.162783	0.564069
17138	0	8.320641	-0.032860	5.705549	-0.005102	0.064372	0.276083	0.012967	0.004194	0.009319	-0.306641	0.097656	-0.802734	0.083208	-0.000328	0.057054	1.000000	0.000065	0.000021	0.000047	0.555231	-0.099892	0.825676	0.190705	0.981602	-0.009484	-0.809537	0.162726	0.564065
17139	0	8.320552	-0.032914	5.705679	-0.005181	0.064982	0.276079	0.015730	-0.001184	0.011657	-0.306396	0.095215	-0.784180	0.083205	-0.000329	0.057057	1.000000	0.000079	-0.000006	0.000058	0.555221	-0.099809	0.825692	0.190660	0.981610	-0.009549	-0.809554	0.162728	0.564040
17140	0	8.325803	-0.043261	5.758868	-0.047856	0.063710	0.310507	0.014655	-0.003184	0.010299	-0.306396	0.095459	-0.795654	0.083257	-0.000433	0.057590	1.000000	0.000073	-0.000016	0.000051	0.555181	-0.099674	0.825736	0.190530	0.981634	-0.009610	-0.809613	0.162663	0.563976
17141	0	8.376876	-0.091341	5.699564	0.018507	0.002672	0.319690	0.008098	-0.008407	0.006033	-0.306396	0.095215	-0.788818	0.083766	-0.000913	0.056999	1.000000	0.000040	-0.000042	0.000030	0.555092	-0.099589	0.825806	0.190519	0.981636	-0.009682	-0.809676	0.162706	0.563872
17142	0	8.414044	0.000128	5.757879	0.008463	0.098680	0.382385	0.025229	-0.000923	0.008737	-0.310791	0.093018	-0.793213	0.084140	-0.000002	0.057579	1.000000	0.000126	-0.000005	0.000044	0.555067	-0.099473	0.825836	0.190313	0.981676	-0.009671	-0.809742	0.162535	0.563827
17143	0	8.448316	0.097469	5.840182	-0.021537	0.204043	0.456158	0.020231	0.000630	0.005238	-0.308838	0.095459	-0.798096	0.084483	0.000971	0.058402	1.000000	0.000101	0.000003	0.000026	0.555021	-0.099386	0.825878	0.190135	0.981711	-0.009639	-0.809815	0.162378	0.563767
17144	0	8.453589	0.086968	5.792928	0.017261	0.185774	0.433968	0.012317	0.000542	0.006601	-0.311035	0.097412	-0.795898	0.084536	0.000869	0.057929	1.000000	0.000062	0.000003	0.000033	0.555004	-0.099293	0.825901	0.190045	0.981728	-0.009683	-0.809848	0.162332	0.563733
17145	0	8.428155	0.027804	5.728143	0.043956	0.120528	0.377000	0.017144	-0.000657	0.013207	-0.311035	0.095215	-0.791016	0.084281	0.000279	0.057282	1.000000	0.000086	-0.000003	0.000066	0.554970	-0.099205	0.825934	0.190030	0.981730	-0.009768	-0.809875	0.162373	0.563682
17146	0	8.454961	0.140031	5.780252	0.037106	0.237436	0.427407	0.029902	-0.009140	0.022543	-0.308838	0.095215	-0.795654	0.084547	0.001401	0.057807	1.000000	0.000150	-0.000046	0.000113	0.554904	-0.098940	0.826010	0.189709	0.981791	-0.009845	-0.809995	0.162164	0.563570
17147	0	8.496742	0.166367	5.802955	0.045261	0.264404	0.474423	0.017408	-0.010092	0.025464	-0.311279	0.099609	-0.793457	0.084964	0.001669	0.058034	1.000000	0.000087	-0.000050	0.000127	0.554799	-0.098668	0.826113	0.189519	0.981826	-0.010012	-0.810111	0.162119	0.563416
17148	0	8.508904	0.084337	5.696989	0.122190	0.167518	0.425537	0.015683	0.010499	0.029112	-0.306641	0.097656	-0.793457	0.085092	0.000851	0.056965	1.000000	0.000078	0.000052	0.000146	0.554905	-0.098370	0.826077	0.189278	0.981870	-0.010223	-0.810095	0.162030	0.563464
17149	0	8.399538	0.082695	5.686250	0.071289	0.176997	0.329113	0.035481	0.020146	0.031604	-0.311035	0.097412	-0.791260	0.084001	0.000830	0.056854	1.000000	0.000177	0.000101	0.000158	0.555071	-0.098143	0.825993	0.189091	0.981904	-0.010402	-0.810025	0.161962	0.563585
17150	0	8.332631	0.049713	5.688059	0.028215	0.152525	0.275185	0.044634	0.020347	0.041310	-0.308594	0.090820	-0.795654	0.083332	0.000502	0.056872	1.000000	0.000223	0.000102	0.000207	0.555280	-0.097741	0.825900	0.188548	0.982007	-0.010551	-0.810009	0.161580	0.563718
17151	0	8.262712	-0.032344	5.624257	0.026005	0.070110	0.182318	0.041507	-0.001334	0.050299	-0.311035	0.097412	-0.793457	0.082627	-0.000314	0.056243	1.000000	0.000208	-0.000007	0.000251	0.555294	-0.097231	0.825951	0.187978	0.982114	-0.010764	-0.810132	0.161238	0.563639
17152	0	8.232865	-0.083347	5.504993	0.095042	0.006516	0.090993	0.053880	-0.028749	0.060464	-0.308838	0.095215	-0.795654	0.082321	-0.000823	0.055062	1.000000	0.000269	-0.000144	0.000302	0.555139	-0.096562	0.826133	0.187253	0.982250	-0.011019	-0.810405	0.160813	0.563367
17153	0	8.239156	-0.037530	5.465299	0.134618	0.047999	0.073372	0.074094	-0.062517	0.068505	-0.313232	0.095215	-0.788818	0.082375	-0.000367	0.054679	1.000000	0.000370	-0.000313	0.000343	0.554691	-0.095815	0.826521	0.186450	0.982400	-0.011244	-0.810897	0.160342	0.562793
17154	0	8.278248	0.056158	5.440037	0.186561	0.136408	0.090500	0.078306	-0.096072	0.082382	-0.308838	0.095215	-0.791016	0.082756	0.000574	0.054440	1.000000	0.000392	-0.000480	0.000412	0.554030	-0.094822	0.827079	0.185405	0.982594	-0.011544	-0.811588	0.159741	0.561967
17155	0	8.331616	0.120749	5.294483	0.335691	0.177503	0.052288	0.079500	-0.109729	0.096772	-0.308838	0.095215	-0.793457	0.083287	0.001227	0.052991	1.000000	0.000398	-0.000549	0.000484	0.553222	-0.093666	0.827752	0.184305	0.982796	-0.011969	-0.812390	0.159180	0.560967
17156	0	8.345123	0.211694	5.213216	0.415757	0.259357	0.017032	0.082935	-0.104834	0.104092	-0.308838	0.099609	-0.786621	0.083423	0.002139	0.052177	1.000000	0.000415	-0.000524	0.000520	0.552525	-0.092447	0.828353	0.183104	0.983015	-0.012425	-0.813135	0.158540	0.560068
17157	0	8.350464	0.318471	5.203741	0.437500	0.370190	0.014934	0.073046	-0.083559	0.115262	-0.312988	0.090820	-0.788574	0.083481	0.003214	0.052073	1.000000	0.000365	-0.000418	0.000576	0.552024	-0.091241	0.828821	0.182163	0.983181	-0.013093	-0.813687	0.158208	0.559360
17158	0	8.373916	0.327223	5.119996	0.513314	0.371521	-0.012566	0.062904	-0.066847	0.115972	-0.308594	0.090820	-0.791016	0.083720	0.003305	0.051229	1.000000	0.000315	-0.000334	0.000580	0.551655	-0.089966	0.829206	0.181059	0.983376	-0.013762	-0.814183	0.157727	0.558773
17159	0	8.387685	0.299158	5.120886	0.509614	0.350757	-0.000273	0.069285	-0.054471	0.127122	-0.308838	0.097412	-0.791260	0.083861	0.003027	0.051233	1.000000	0.000346	-0.000272	0.000636	0.551402	-0.088608	0.829520	0.179767	0.983603	-0.014429	-0.814640	0.157077	0.558290
17160	0	8.449808	0.279910	5.074984	0.573674	0.328262	0.025819	0.059080	-0.044919	0.133495	-0.313232	0.093018	-0.793213	0.084485	0.002840	0.050770	1.000000	0.000295	-0.000225	0.000667	0.551240	-0.087196	0.829778	0.178599	0.983804	-0.015266	-0.815007	0.156612	0.557885
17161	0	8.528659	0.282010	5.076624	0.613209	0.333163	0.091990	0.067359	-0.039740	0.134569	-0.313232	0.093018	-0.788574	0.085275	0.002860	0.050784	1.000000	0.000337	-0.000199	0.000673	0.551130	-0.085883	0.829988	0.177553	0.983980	-0.016082	-0.815310	0.156230	0.557550
17162	0	8.653020	0.358252	5.065356	0.701506	0.404952	0.187554	0.078568	-0.033703	0.137170	-0.312988	0.090820	-0.786133	0.086519	0.003622	0.050670	1.000000	0.000393	-0.000169	0.000686	0.551063	-0.084452	0.830179	0.176205	0.984209	-0.016842	-0.815648	0.155563	0.557242
17163	0	8.751271	0.376864	5.090719	0.734666	0.427506	0.282841	0.082150	-0.035058	0.132669	-0.313232	0.097412	-0.791260	0.087501	0.003806	0.050924	1.000000	0.000411	-0.000175	0.000663	0.550929	-0.083054	0.830409	0.174789	0.984450	-0.017502	-0.816043	0.154788	0.556879
17164	0	8.866341	0.415717	5.062137	0.825060	0.460539	0.361655	0.062200	-0.036307	0.121313	-0.315674	0.099609	-0.788818	0.088652	0.004195	0.050639	1.000000	0.000311	-0.000182	0.000607	0.550808	-0.081775	0.830616	0.173662	0.984637	-0.018223	-0.816365	0.154283	0.556547
17165	0	8.913605	0.310993	5.036983	0.850624	0.359229	0.388668	0.037893	-0.025507	0.113018	-0.312988	0.090820	-0.793213	0.089128	0.003151	0.050382	1.000000	0.000189	-0.000128	0.000565	0.550700	-0.080696	0.830794	0.173077	0.984723	-0.019079	-0.816562	0.154298	0.556254
17166	0	9.007682	0.281704	5.098527	0.844147	0.341546	0.501547	0.027410	-0.048080	0.103128	-0.313232	0.097412	-0.786377	0.090063	0.002856	0.051007	1.000000	0.000137	-0.000240	0.000516	0.550450	-0.079577	0.831067	0.172335	0.984838	-0.019843	-0.816888	0.154145	0.555818
17167	0	9.173923	0.213208	5.099633	0.918145	0.270076	0.641816	0.016908	-0.056498	0.092956	-0.313477	0.099609	-0.786621	0.091724	0.002170	0.051022	1.000000	0.000085	-0.000282	0.000465	0.550083	-0.078616	0.831401	0.171840	0.984910	-0.020564	-0.817239	0.154180	0.555292
17168	0	9.240598	0.184107	5.107546	0.939767	0.245801	0.702349	0.016870	-0.026739	0.079561	-0.313232	0.097412	-0.788818	0.092398	0.001874	0.051088	1.000000	0.000084	-0.000134	0.000398	0.549965	-0.077762	0.831559	0.171315	0.984988	-0.021192	-0.817428	0.154113	0.555031
17169	0	9.121318	0.150137	5.202851	0.789718	0.243114	0.656691	0.022200	0.007306	0.065719	-0.313232	0.095215	-0.788818	0.091215	0.001526	0.052025	1.000000	0.000111	0.000037	0.000329	0.550059	-0.077204	0.831550	0.171099	0.985014	-0.021727	-0.817411	0.154229	0.555025
17170	0	8.989501	0.137169	5.194166	0.724621	0.243581	0.542258	0.028364	0.037290	0.055580	-0.313232	0.095215	-0.788818	0.089904	0.001389	0.051925	1.000000	0.000142	0.000186	0.000278	0.550423	-0.076686	0.831357	0.170612	0.985091	-0.022092	-0.817268	0.153999	0.555300
17171	0	8.846053	0.147085	5.181855	0.662463	0.264686	0.415557	0.051419	0.068722	0.051909	-0.315674	0.099609	-0.791260	0.088478	0.001480	0.051789	1.000000	0.000257	0.000344	0.000260	0.551000	-0.076327	0.831008	0.170076	0.985179	-0.022281	-0.816990	0.153612	0.555815
17172	0	8.622867	0.095581	5.179042	0.540432	0.231631	0.229211	0.063893	0.083139	0.056559	-0.306396	0.093018	-0.793213	0.086250	0.000964	0.051755	1.000000	0.000319	0.000416	0.000283	0.551739	-0.075869	0.830559	0.169293	0.985310	-0.022457	-0.816654	0.152998	0.556478
17173	0	8.438847	0.076629	5.223049	0.407989	0.234317	0.100884	0.074692	0.083450	0.064619	-0.313232	0.095215	-0.788818	0.084410	0.000774	0.052196	1.000000	0.000373	0.000417	0.000323	0.552487	-0.075482	0.830097	0.168645	0.985417	-0.022639	-0.816282	0.152499	0.557160
17174	0	8.299601	-0.039254	5.244610	0.301421	0.134664	-0.000356	0.095507	0.073783	0.075809	-0.308594	0.093018	-0.791016	0.083015	-0.000386	0.052415	1.000000	0.000478	0.000369	0.000379	0.553181	-0.074818	0.829694	0.167497	0.985609	-0.022797	-0.816049	0.151582	0.557752
17175	0	8.205079	-0.075566	5.274942	0.224126	0.111177	-0.061203	0.106911	0.056987	0.084597	-0.308838	0.095215	-0.788818	0.082066	-0.000749	0.052726	1.000000	0.000535	0.000285	0.000423	0.553709	-0.074118	0.829405	0.166315	0.985806	-0.022938	-0.815933	0.150643	0.558176
17176	0	8.158143	-0.097206	5.279588	0.195278	0.095084	-0.097153	0.123460	0.038225	0.093774	-0.310791	0.093018	-0.791016	0.081592	-0.000966	0.052780	1.000000	0.000617	0.000191	0.000469	0.554140	-0.073222	0.829197	0.164839	0.986050	-0.023087	-0.815939	0.149478	0.558480
17177	0	8.181125	-0.091514	5.359301	0.146813	0.111971	-0.033772	0.132764	0.031390	0.098031	-0.308594	0.093018	-0.786377	0.081820	-0.000911	0.053580	1.000000	0.000664	0.000157	0.000490	0.554476	-0.072359	0.829048	0.163415	0.986284	-0.023212	-0.815997	0.148350	0.558695
17178	0	8.260725	-0.092417	5.421278	0.143508	0.115243	0.066811	0.132923	0.038530	0.092304	-0.308594	0.090820	-0.791016	0.082618	-0.000922	0.054196	1.000000	0.000665	0.000193	0.000462	0.554905	-0.071477	0.828837	0.161870	0.986537	-0.023295	-0.816014	0.147091	0.559004
17179	0	8.253143	-0.139424	5.462230	0.102349	0.075300	0.084465	0.130539	0.057490	0.084901	-0.310791	0.088623	-0.790771	0.082548	-0.001395	0.054598	1.000000	0.000653	0.000287	0.000425	0.555431	-0.070756	0.828547	0.160473	0.986765	-0.023309	-0.815931	0.145906	0.559435
17180	0	8.293883	-0.177822	5.456803	0.129219	0.033093	0.116009	0.117386	0.068614	0.072014	-0.302002	0.095459	-0.795654	0.082958	-0.001780	0.054539	1.000000	0.000587	0.000343	0.000360	0.556071	-0.070117	0.828172	0.159167	0.986976	-0.023310	-0.815752	0.144780	0.559989
17181	0	8.267067	-0.242504	5.554641	0.032027	-0.016763	0.150039	0.098357	0.094456	0.038042	-0.308594	0.093018	-0.786377	0.082697	-0.002437	0.055506	1.000000	0.000492	0.000472	0.000190	0.556862	-0.070006	0.827650	0.158477	0.987092	-0.023135	-0.815346	0.144046	0.560768
17182	0	8.185770	-0.369799	5.616497	-0.072260	-0.131660	0.120391	0.053209	0.153715	0.001962	-0.312988	0.088623	-0.790771	0.081901	-0.003712	0.056101	1.000000	0.000266	0.000769	0.000010	0.558082	-0.070179	0.826812	0.158084	0.987160	-0.022914	-0.814588	0.143494	0.562011
17183	0	7.867061	-0.575651	5.501287	-0.173747	-0.334713	-0.203113	0.016746	0.211141	-0.049496	-0.302002	0.093262	-0.791016	0.078727	-0.005781	0.054929	0.999999	0.000084	0.001056	-0.000247	0.559557	-0.070919	0.825752	0.158273	0.987140	-0.022471	-0.813539	0.143268	0.563585
17184	0	7.621812	-0.825857	5.306202	-0.173537	-0.601336	-0.510103	0.000713	0.219571	-0.111034	-0.303955	0.090820	-0.791016	0.076272	-0.008301	0.052978	0.999999	0.000004	0.001098	-0.000555	0.561130	-0.072302	0.824564	0.158942	0.987051	-0.021613	-0.812324	0.143185	0.565356
17185	0	7.546515	-1.027664	5.091908	-0.057893	-0.839443	-0.689889	0.024413	0.206620	-0.184366	-0.299561	0.093262	-0.795654	0.075508	-0.010352	0.050840	0.999999	0.000122	0.001033	-0.000922	0.562433	-0.074491	0.823480	0.160070	0.986902	-0.020053	-0.811201	0.143093	0.566990
17186	0	7.497641	-1.097033	4.974214	0.013026	-0.942380	-0.797557	0.062846	0.207738	-0.270328	-0.297119	0.088867	-0.793213	0.075013	-0.011087	0.049661	0.999998	0.000314	0.001039	-0.001352	0.563648	-0.077427	0.822378	0.161135	0.986777	-0.017534	-0.810146	0.142397	0.568671
17187	0	7.537870	-1.110706	5.056491	-0.022260	-0.976225	-0.720513	0.111995	0.174305	-0.349587	-0.301758	0.088623	-0.790771	0.075403	-0.011267	0.050493	0.999998	0.000560	0.000872	-0.001748	0.564450	-0.081256	0.821458	0.162596	0.986591	-0.014134	-0.809295	0.141544	0.570094
17188	0	7.842846	-0.924521	5.088746	0.157189	-0.848834	-0.457745	0.177936	0.053035	-0.384367	-0.297363	0.091064	-0.795654	0.078424	-0.009441	0.050858	0.999998	0.000890	0.000265	-0.001922	0.564218	-0.085095	0.821229	0.163378	0.986513	-0.010026	-0.809300	0.139827	0.570510
17189	0	8.618152	-0.514227	5.186022	0.573050	-0.536799	0.227983	0.253329	-0.078479	-0.384163	-0.299072	0.079834	-0.792725	0.086151	-0.005373	0.051887	0.999997	0.001267	-0.000392	-0.001921	0.562846	-0.088850	0.821773	0.163877	0.986465	-0.005586	-0.810154	0.137814	0.569788
17190	0	9.565927	0.058020	5.146942	1.209337	-0.105614	0.982101	0.309148	-0.197260	-0.342035	-0.301270	0.075439	-0.794922	0.095609	0.000337	0.051564	0.999997	0.001546	-0.000986	-0.001710	0.560651	-0.091927	0.822934	0.163345	0.986568	-0.001078	-0.811781	0.135026	0.568136
17191	0	9.499521	0.713588	5.207461	1.200014	0.516221	0.965117	0.221893	-0.215026	-0.294735	-0.307861	0.075439	-0.781006	0.094949	0.006938	0.052184	0.999998	0.001109	-0.001075	-0.001474	0.558348	-0.094545	0.824202	0.163291	0.986575	0.002551	-0.813378	0.133161	0.566290
17192	0	10.566476	0.647036	5.199262	1.751269	0.320330	1.846283	0.167371	-0.393525	-0.207143	-0.307861	0.075439	-0.792725	0.105569	0.006317	0.052206	0.999997	0.000837	-0.001968	-0.001036	0.554769	-0.096039	0.826443	0.163134	0.986590	0.005142	-0.815855	0.131969	0.562997
17193	0	10.926013	1.029074	5.208548	1.961368	0.644298	2.158257	0.165983	-0.242858	-0.148695	-0.308105	0.079834	-0.785889	0.109204	0.010166	0.052227	0.999999	0.000830	-0.001214	-0.000743	0.552380	-0.097093	0.827918	0.162640	0.986659	0.007197	-0.817572	0.130677	0.560802
17194	0	11.109642	1.108063	4.599562	2.544495	0.615177	1.975229	0.020378	-0.199857	-0.035101	-0.307861	0.071045	-0.785400	0.111052	0.011056	0.046108	0.999999	0.000102	-0.000999	-0.000176	0.550652	-0.097150	0.829062	0.162721	0.986643	0.007538	-0.818721	0.130755	0.559106
17195	0	11.082399	0.834500	4.402432	2.630215	0.323868	1.843832	0.032443	-0.053538	0.026002	-0.310059	0.071045	-0.790283	0.110811	0.008352	0.044055	1.000000	0.000162	-0.000268	0.000130	0.550140	-0.096881	0.829433	0.162653	0.986656	0.007362	-0.819078	0.130860	0.558557
17196	0	10.456296	0.665353	4.509410	2.175158	0.238503	1.382105	-0.086579	0.126270	0.080809	-0.310303	0.075439	-0.788086	0.104589	0.006715	0.045025	1.000000	-0.000433	0.000631	0.000404	0.551270	-0.096221	0.828760	0.162972	0.986612	0.006144	-0.818255	0.131678	0.559570
17197	0	9.593285	0.115450	4.450543	1.677678	-0.214443	0.627193	-0.211533	0.217421	0.123042	-0.308105	0.079834	-0.792725	0.095980	0.001261	0.044400	0.999999	-0.001058	0.001087	0.000615	0.553123	-0.095344	0.827626	0.164270	0.986408	0.003850	-0.816744	0.133825	0.561267
17198	0	8.941289	-0.371690	4.445914	1.263491	-0.614462	0.080589	-0.209529	0.172328	0.146945	-0.303711	0.079834	-0.781250	0.089454	-0.003605	0.044386	0.999999	-0.001048	0.000862	0.000735	0.554735	-0.094099	0.826689	0.165221	0.986256	0.001393	-0.815457	0.135814	0.562658
17199	0	8.881273	-0.622420	4.357924	1.273766	-0.846316	-0.018958	-0.196815	0.060589	0.163347	-0.310303	0.079834	-0.778809	0.088831	-0.006109	0.043558	0.999999	-0.000984	0.000303	0.000817	0.555367	-0.092648	0.826429	0.166295	0.986075	-0.001206	-0.814809	0.138101	0.563040
17200	0	8.897553	-0.916755	4.283803	1.303434	-1.124340	-0.045665	-0.223764	0.065523	0.185571	-0.301514	0.082031	-0.790527	0.088998	-0.009037	0.042819	0.999999	-0.001119	0.000328	0.000928	0.556174	-0.090881	0.826082	0.167142	0.985924	-0.004065	-0.814085	0.140333	0.563535
17201	0	8.691082	-1.314722	4.313395	1.107683	-1.467563	-0.195619	-0.212998	0.099389	0.206204	-0.301514	0.082031	-0.785889	0.086946	-0.013012	0.043105	0.999999	-0.001065	0.000497	0.001031	0.557167	-0.088909	0.825627	0.167776	0.985800	-0.007065	-0.813275	0.142457	0.564172
17202	0	8.484137	-1.488575	4.334451	0.958133	-1.592172	-0.350615	-0.142384	0.077942	0.231580	-0.303467	0.077637	-0.788086	0.084875	-0.014757	0.043322	0.999999	-0.000712	0.000390	0.001158	0.558154	-0.086709	0.825195	0.167698	0.985789	-0.009846	-0.812614	0.143879	0.564763
17203	0	8.479213	-1.517047	4.416226	0.894978	-1.583374	-0.305142	-0.086438	0.072126	0.257527	-0.299561	0.090820	-0.783936	0.084827	-0.015042	0.044138	0.999999	-0.000432	0.000361	0.001288	0.559060	-0.084132	0.824848	0.166777	0.985916	-0.012476	-0.812181	0.144540	0.565217
17204	0	8.383138	-1.528630	4.332277	0.920561	-1.574462	-0.428877	-0.047941	0.095059	0.280526	-0.299316	0.086426	-0.790771	0.083873	-0.015158	0.043287	0.999999	-0.000240	0.000475	0.001403	0.560262	-0.081475	0.824299	0.165652	0.986068	-0.015126	-0.811583	0.145021	0.565953
17205	0	8.296456	-1.501145	4.265542	0.943281	-1.526262	-0.535826	0.012252	0.071936	0.290086	-0.303955	0.090820	-0.783936	0.083002	-0.014894	0.042625	0.999999	0.000061	0.000360	0.001450	0.561215	-0.078728	0.823917	0.164147	0.986279	-0.017567	-0.811229	0.145103	0.566438
17206	0	8.275501	-1.493918	4.209766	0.988676	-1.503408	-0.582299	0.069755	0.024037	0.307798	-0.299561	0.088623	-0.788574	0.082783	-0.014826	0.042083	0.999999	0.000349	0.000120	0.001539	0.561876	-0.075698	0.823750	0.161909	0.986608	-0.019774	-0.811222	0.144483	0.566608
17207	0	8.496284	-1.482079	4.076157	1.228728	-1.505464	-0.473404	0.124184	-0.014847	0.305216	-0.301758	0.090820	-0.788574	0.084982	-0.014716	0.040759	0.999999	0.000621	-0.000074	0.001526	0.562073	-0.072539	0.823901	0.159202	0.987007	-0.021710	-0.811621	0.143370	0.566318
17208	0	8.673554	-1.429943	3.952188	1.443237	-1.465493	-0.396508	0.196997	-0.006953	0.293343	-0.301514	0.084229	-0.788330	0.086755	-0.014211	0.039511	0.999998	0.000985	-0.000035	0.001467	0.562443	-0.069604	0.823901	0.156010	0.987486	-0.023077	-0.811985	0.141516	0.566263
17209	0	8.741871	-1.251567	3.937332	1.527439	-1.279422	-0.351224	0.244976	0.020845	0.282636	-0.299561	0.088623	-0.783936	0.087440	-0.012440	0.039349	0.999998	0.001225	0.000104	0.001413	0.562880	-0.066678	0.823844	0.152344	0.988033	-0.024119	-0.812377	0.139084	0.566303
17210	0	8.748865	-1.172659	3.867661	1.608052	-1.198281	-0.386403	0.273768	0.021479	0.265810	-0.294922	0.086670	-0.786133	0.087508	-0.011663	0.038651	0.999998	0.001369	0.000107	0.001329	0.563418	-0.064052	0.823685	0.148678	0.988574	-0.024825	-0.812684	0.136451	0.566504
17211	0	8.760321	-0.980225	3.792772	1.709920	-1.006661	-0.423759	0.318265	0.013298	0.263263	-0.299316	0.086426	-0.779053	0.087619	-0.009747	0.037906	0.999998	0.001591	0.000066	0.001316	0.563774	-0.061368	0.823646	0.144690	0.989152	-0.025339	-0.813156	0.133459	0.566538
17212	0	8.795047	-0.771629	3.815748	1.745607	-0.789622	-0.387320	0.367125	-0.014990	0.257443	-0.297119	0.084229	-0.781494	0.087958	-0.007673	0.038150	0.999997	0.001836	-0.000075	0.001287	0.563982	-0.058773	0.823693	0.140309	0.989781	-0.025446	-0.813780	0.129922	0.566465
17213	0	8.938139	-0.684695	3.831044	1.826727	-0.698412	-0.262226	0.342756	-0.019825	0.269958	-0.299316	0.084229	-0.783691	0.089387	-0.006792	0.038308	0.999998	0.001714	-0.000099	0.001350	0.563998	-0.055885	0.823883	0.135979	0.990373	-0.025907	-0.814504	0.126642	0.566168
17214	0	8.931786	-0.627726	3.709707	1.932279	-0.645083	-0.337303	0.347066	-0.010909	0.281127	-0.299072	0.079834	-0.785889	0.089325	-0.006216	0.037091	0.999998	0.001735	-0.000055	0.001406	0.564248	-0.053058	0.823899	0.131622	0.990950	-0.026326	-0.815046	0.123297	0.566125
17215	0	9.060820	-0.634525	3.724260	1.994254	-0.642815	-0.222019	0.368772	0.005174	0.294734	-0.299072	0.082031	-0.785889	0.090618	-0.006280	0.037229	0.999997	0.001844	0.000026	0.001474	0.564470	-0.050009	0.823937	0.127034	0.991535	-0.026849	-0.815620	0.119824	0.566044
17216	0	9.194497	-0.590600	3.803291	2.017025	-0.583583	-0.068785	0.365110	0.038997	0.293931	-0.296631	0.077637	-0.781250	0.091961	-0.005840	0.038004	0.999997	0.001826	0.000195	0.001470	0.565117	-0.047111	0.823665	0.122453	0.992100	-0.027270	-0.815873	0.116271	0.566421
17217	0	9.333502	-0.693441	3.777467	2.113095	-0.681007	0.032890	0.352041	0.103687	0.291188	-0.291992	0.071045	-0.778564	0.093365	-0.006865	0.037714	0.999997	0.001760	0.000518	0.001456	0.566106	-0.044243	0.823145	0.118120	0.992608	-0.027884	-0.815826	0.113016	0.567147
17218	0	9.435246	-0.837490	3.844349	2.117246	-0.809024	0.155611	0.366926	0.170961	0.288536	-0.291992	0.073242	-0.783203	0.094397	-0.008309	0.038348	0.999997	0.001835	0.000855	0.001443	0.567796	-0.041540	0.822121	0.113549	0.993131	-0.028242	-0.815300	0.109387	0.568612
17219	0	9.510041	-0.982301	4.019407	2.024028	-0.925925	0.316840	0.390719	0.227251	0.275073	-0.289795	0.071045	-0.778564	0.095159	-0.009771	0.040067	0.999997	0.001954	0.001136	0.001375	0.569789	-0.038849	0.820872	0.108719	0.993666	-0.028438	-0.814568	0.105448	0.570403
17220	0	9.585744	-1.072119	4.185697	1.953274	-0.994280	0.470893	0.401730	0.285269	0.259312	-0.294189	0.071045	-0.785645	0.095931	-0.010681	0.041699	0.999996	0.002009	0.001426	0.001297	0.572348	-0.036538	0.819196	0.104025	0.994171	-0.028337	-0.813386	0.101435	0.572813
17221	0	9.570571	-1.270685	4.307200	1.860790	-1.173364	0.527669	0.408358	0.349502	0.248566	-0.289551	0.066650	-0.782959	0.095797	-0.012676	0.042879	0.999996	0.002042	0.001748	0.001243	0.575199	-0.034227	0.817297	0.099322	0.994654	-0.028246	-0.811961	0.097422	0.575524
17222	0	9.444157	-1.335803	4.381502	1.766283	-1.225748	0.461144	0.447744	0.407356	0.245819	-0.280518	0.064453	-0.778320	0.094547	-0.013340	0.043593	0.999995	0.002239	0.002037	0.001229	0.578702	-0.032141	0.814906	0.094329	0.995155	-0.027737	-0.810066	0.092921	0.578930
17223	0	9.128005	-1.389483	4.538107	1.498483	-1.254544	0.288105	0.492343	0.438075	0.253958	-0.280273	0.060059	-0.782715	0.091397	-0.013890	0.045147	0.999994	0.002462	0.002190	0.001270	0.582234	-0.029768	0.812476	0.088822	0.995677	-0.027171	-0.808155	0.087985	0.582361
17224	0	8.795084	-1.339060	4.606658	1.303589	-1.192617	0.048651	0.525044	0.425296	0.261323	-0.275391	0.053467	-0.780273	0.088066	-0.013396	0.045844	0.999993	0.002625	0.002126	0.001307	0.585852	-0.027501	0.809951	0.083114	0.996193	-0.026294	-0.806145	0.082723	0.585907
17225	0	8.480565	-1.265865	4.561196	1.205835	-1.117760	-0.240681	0.546287	0.381213	0.273935	-0.273438	0.057861	-0.782715	0.084910	-0.012667	0.045416	0.999994	0.002731	0.001906	0.001370	0.588892	-0.024710	0.807834	0.076805	0.996720	-0.025501	-0.804554	0.077063	0.588858
17226	0	8.174113	-1.137553	4.569041	1.069218	-0.986592	-0.492303	0.582342	0.332892	0.291084	-0.270508	0.044678	-0.782227	0.081834	-0.011389	0.045521	0.999993	0.002912	0.001664	0.001455	0.591742	-0.022027	0.805826	0.070462	0.997214	-0.024483	-0.803042	0.071268	0.591646
17227	0	7.976280	-0.942520	4.559442	1.004548	-0.790726	-0.665914	0.587958	0.260753	0.313395	-0.268799	0.053467	-0.782471	0.079837	-0.009434	0.045463	0.999994	0.002940	0.001304	0.001567	0.593780	-0.018767	0.804409	0.063715	0.997685	-0.023755	-0.802101	0.065358	0.593601
17228	0	7.964991	-0.881164	4.456081	1.110218	-0.737531	-0.740885	0.577438	0.181084	0.336860	-0.270508	0.042480	-0.786865	0.079705	-0.008806	0.044463	0.999994	0.002887	0.000905	0.001684	0.595395	-0.015492	0.803284	0.057138	0.998099	-0.023102	-0.801399	0.059653	0.595148
17229	0	7.912270	-0.773255	4.373715	1.166486	-0.629819	-0.836389	0.543973	0.114690	0.352634	-0.275146	0.046875	-0.782227	0.079161	-0.007712	0.043671	0.999995	0.002720	0.000573	0.001763	0.596208	-0.011881	0.802742	0.050848	0.998442	-0.022988	-0.801218	0.054524	0.595883
17230	0	8.191010	-0.771257	4.340575	1.370364	-0.627950	-0.633589	0.540269	0.025090	0.358244	-0.270508	0.040283	-0.784424	0.081929	-0.007683	0.043375	0.999995	0.002701	0.000125	0.001791	0.596538	-0.008289	0.802542	0.044438	0.998754	-0.022716	-0.801353	0.049214	0.596163
17231	0	8.659990	-0.784342	4.304944	1.678674	-0.636543	-0.277488	0.507684	-0.026471	0.351091	-0.270264	0.038086	-0.777344	0.086608	-0.007801	0.043041	0.999995	0.002538	-0.000132	0.001755	0.596092	-0.004563	0.802903	0.038413	0.999001	-0.022841	-0.801996	0.044457	0.595672
17232	0	9.170729	-0.979794	4.208520	2.053989	-0.829106	0.080119	0.484315	-0.055866	0.319499	-0.270264	0.035889	-0.777344	0.091711	-0.009753	0.042087	0.999996	0.002422	-0.000279	0.001597	0.595715	-0.001321	0.803194	0.032680	0.999210	-0.022595	-0.802530	0.039708	0.595288
17233	0	9.738326	-1.049159	4.095277	2.476266	-0.892589	0.472176	0.502062	-0.066972	0.279248	-0.267822	0.031494	-0.772461	0.097384	-0.010458	0.040959	0.999996	0.002510	-0.000335	0.001396	0.594918	0.001750	0.803784	0.026998	0.999390	-0.022159	-0.803333	0.034883	0.594508
17234	0	10.285008	-1.200767	4.067655	2.820866	-1.038932	0.898633	0.516089	-0.020827	0.228908	-0.265625	0.031494	-0.774902	0.102860	-0.011995	0.040656	0.999996	0.002580	-0.000104	0.001145	0.594763	0.004072	0.803891	0.021547	0.999547	-0.021004	-0.803612	0.029813	0.594406
17235	0	10.823821	-1.338058	4.016659	3.185265	-1.172051	1.303041	0.518512	0.071764	0.184419	-0.267578	0.024902	-0.770020	0.108265	-0.013385	0.040093	0.999996	0.002593	0.000359	0.000922	0.595103	0.006077	0.803626	0.016359	0.999673	-0.019674	-0.803483	0.024855	0.594809
17236	0	11.057361	-1.269419	4.227481	3.175129	-1.101694	1.608916	0.584251	0.156187	0.138302	-0.265137	0.022705	-0.772217	0.110615	-0.012741	0.042151	0.999995	0.002921	0.000781	0.000692	0.596332	0.007452	0.802703	0.010900	0.999790	-0.017379	-0.802664	0.019113	0.596126
17237	0	11.770768	-1.241968	5.713289	2.439926	-1.057725	3.058320	0.745178	0.301564	0.106828	-0.258301	0.016113	-0.769531	0.117800	-0.012569	0.056909	0.999992	0.003726	0.001508	0.000534	0.598498	0.008702	0.801077	0.004223	0.999893	-0.014017	-0.801113	0.011772	0.598397
17238	0	12.614017	0.156907	10.327116	-0.674397	0.330133	6.472940	1.227091	0.608176	0.083388	-0.260254	0.013916	-0.781006	0.126453	0.000990	0.102894	0.999976	0.006135	0.003041	0.000417	0.603314	0.009528	0.797447	-0.006030	0.999955	-0.007385	-0.797481	-0.000353	0.603344
17239	0	11.420346	4.882765	10.660711	-1.658279	4.975539	5.692488	0.510754	-0.001768	0.231282	-0.262451	0.011719	-0.771729	0.114146	0.048687	0.106733	0.999996	0.002554	-0.000009	0.001156	0.603050	0.012000	0.797613	-0.011483	0.999914	-0.006362	-0.797621	-0.005322	0.603136
17240	0	11.662823	4.064388	7.218364	1.205273	4.202617	3.808257	-0.315732	-0.337440	0.445698	-0.260254	0.009521	-0.773926	0.116415	0.041018	0.072316	0.999995	-0.001579	-0.001687	0.002228	0.600259	0.016470	0.799636	-0.011587	0.999862	-0.011896	-0.799722	-0.002125	0.600367
17241	0	10.399266	3.327862	7.086373	0.526690	3.514617	2.709525	-0.299351	-0.106364	0.373803	-0.260498	0.018311	-0.769775	0.103892	0.033579	0.070869	0.999997	-0.001497	-0.000532	0.001869	0.599136	0.020344	0.800389	-0.011443	0.999793	-0.016847	-0.800565	0.000935	0.599245
17242	0	9.807708	2.441989	6.240491	0.844859	2.673227	1.730188	-0.517613	-0.184021	0.212180	-0.264893	0.016113	-0.767334	0.097994	0.024685	0.062431	0.999996	-0.002588	-0.000920	0.001061	0.597596	0.022498	0.801482	-0.008509	0.999728	-0.021718	-0.801752	0.006159	0.597625
17243	0	10.108069	0.943302	4.953671	2.059657	1.219465	1.226893	-0.622451	-0.014471	0.047092	-0.263184	0.027100	-0.770020	0.101075	0.009611	0.049514	0.999995	-0.003112	-0.000072	0.000235	0.597252	0.023075	0.801722	-0.003793	0.999656	-0.025947	-0.802045	0.012456	0.597134
17244	0	9.387929	-0.340362	4.341569	2.135135	-0.060328	0.313308	-0.598967	0.196402	-0.080203	-0.260986	0.029297	-0.767822	0.093921	-0.003311	0.043333	0.999995	-0.002995	0.000982	-0.000401	0.598782	0.022270	0.800602	0.001543	0.999579	-0.028959	-0.800910	0.018576	0.598496
17245	0	9.565310	-1.847898	4.523765	2.100175	-1.546342	0.607122	-0.518165	0.111389	-0.180450	-0.256348	0.027100	-0.762939	0.095662	-0.018448	0.045232	0.999996	-0.002591	0.000557	-0.000902	0.599436	0.020540	0.800159	0.006787	0.999504	-0.030742	-0.800394	0.023858	0.599000
17246	0	10.532814	-2.819092	5.161075	2.161824	-2.484372	1.792422	-0.254930	0.053230	-0.241477	-0.258789	0.029297	-0.772461	0.105308	-0.028252	0.051619	0.999998	-0.001275	0.000266	-0.001207	0.599797	0.018141	0.799947	0.010331	0.999484	-0.030412	-0.800085	0.026505	0.599300
